Sample 1
1/30/2025 9:19 AM
Wavelength (nm)	10mm Absorbance
//WLCalib: Shift 	0.11000	
//WLCalib: 261S 	0.08000	
//WLCalib: 362S 	-0.10000	
//WLCalib: 484S 	-0.09000	
//WLCalib: 529S 	-0.06000	
//WLCalib: 823S 	-0.07000	
//QSpecEnd: 
190.0	2.135
190.5	2.081
191.0	2.111
191.5	2.152
192.0	2.478
192.5	2.653
193.0	3.111
193.5	3.067
194.0	3.056
194.5	2.924
195.0	2.825
195.5	2.746
196.0	2.714
196.5	2.719
197.0	2.911
197.5	3.034
198.0	3.288
198.5	3.278
199.0	3.223
199.5	3.157
200.0	3.089
200.5	2.821
201.0	2.666
201.5	2.799
202.0	2.859
202.5	2.868
203.0	2.955
203.5	2.877
204.0	2.846
204.5	2.607
205.0	2.298
205.5	2.308
206.0	2.456
206.5	2.980
207.0	3.568
207.5	4.049
208.0	4.937
208.5	5.605
209.0	6.639
209.5	7.338
210.0	8.544
210.5	9.704
211.0	11.203
211.5	12.808
212.0	14.170
212.5	15.085
213.0	16.058
213.5	16.986
214.0	17.726
214.5	17.881
215.0	17.894
215.5	17.666
216.0	17.189
216.5	16.537
217.0	15.316
217.5	14.109
218.0	13.101
218.5	12.225
219.0	11.257
219.5	10.327
220.0	9.548
220.5	8.907
221.0	8.317
221.5	7.802
222.0	7.361
222.5	6.969
223.0	6.644
223.5	6.352
224.0	6.084
224.5	5.853
225.0	5.652
225.5	5.476
226.0	5.309
226.5	5.168
227.0	5.056
227.5	4.968
228.0	4.896
228.5	4.834
229.0	4.787
229.5	4.750
230.0	4.719
230.5	4.690
231.0	4.660
231.5	4.634
232.0	4.611
232.5	4.589
233.0	4.570
233.5	4.550
234.0	4.532
234.5	4.516
235.0	4.499
235.5	4.483
236.0	4.467
236.5	4.448
237.0	4.433
237.5	4.416
238.0	4.404
238.5	4.391
239.0	4.380
239.5	4.372
240.0	4.362
240.5	4.353
241.0	4.345
241.5	4.334
242.0	4.326
242.5	4.314
243.0	4.305
243.5	4.297
244.0	4.287
244.5	4.277
245.0	4.265
245.5	4.254
246.0	4.243
246.5	4.236
247.0	4.231
247.5	4.222
248.0	4.219
248.5	4.219
249.0	4.213
249.5	4.205
250.0	4.196
250.5	4.180
251.0	4.167
251.5	4.154
252.0	4.138
252.5	4.128
253.0	4.118
253.5	4.109
254.0	4.104
254.5	4.098
255.0	4.093
255.5	4.080
256.0	4.066
256.5	4.048
257.0	4.031
257.5	4.014
258.0	3.993
258.5	3.982
259.0	3.977
259.5	3.967
260.0	3.961
260.5	3.949
261.0	3.938
261.5	3.929
262.0	3.918
262.5	3.906
263.0	3.893
263.5	3.882
264.0	3.872
264.5	3.858
265.0	3.845
265.5	3.831
266.0	3.821
266.5	3.812
267.0	3.806
267.5	3.798
268.0	3.785
268.5	3.775
269.0	3.764
269.5	3.751
270.0	3.740
270.5	3.732
271.0	3.726
271.5	3.716
272.0	3.713
272.5	3.706
273.0	3.704
273.5	3.700
274.0	3.694
274.5	3.689
275.0	3.678
275.5	3.665
276.0	3.658
276.5	3.644
277.0	3.632
277.5	3.622
278.0	3.616
278.5	3.606
279.0	3.598
279.5	3.588
280.0	3.575
280.5	3.564
281.0	3.559
281.5	3.549
282.0	3.538
282.5	3.525
283.0	3.514
283.5	3.499
284.0	3.485
284.5	3.475
285.0	3.462
285.5	3.449
286.0	3.440
286.5	3.433
287.0	3.425
287.5	3.416
288.0	3.410
288.5	3.401
289.0	3.392
289.5	3.384
290.0	3.372
290.5	3.362
291.0	3.350
291.5	3.341
292.0	3.331
292.5	3.319
293.0	3.314
293.5	3.306
294.0	3.298
294.5	3.294
295.0	3.289
295.5	3.282
296.0	3.272
296.5	3.266
297.0	3.255
297.5	3.244
298.0	3.237
298.5	3.229
299.0	3.222
299.5	3.216
300.0	3.210
300.5	3.205
301.0	3.200
301.5	3.192
302.0	3.184
302.5	3.173
303.0	3.162
303.5	3.151
304.0	3.142
304.5	3.132
305.0	3.128
305.5	3.128
306.0	3.123
306.5	3.122
307.0	3.123
307.5	3.116
308.0	3.110
308.5	3.100
309.0	3.090
309.5	3.081
310.0	3.071
310.5	3.065
311.0	3.060
311.5	3.056
312.0	3.051
312.5	3.046
313.0	3.044
313.5	3.034
314.0	3.024
314.5	3.019
315.0	3.007
315.5	3.001
316.0	2.996
316.5	2.987
317.0	2.978
317.5	2.971
318.0	2.963
318.5	2.956
319.0	2.948
319.5	2.942
320.0	2.932
320.5	2.929
321.0	2.925
321.5	2.920
322.0	2.912
322.5	2.907
323.0	2.900
323.5	2.897
324.0	2.889
324.5	2.881
325.0	2.876
325.5	2.870
326.0	2.866
326.5	2.860
327.0	2.855
327.5	2.853
328.0	2.850
328.5	2.842
329.0	2.836
329.5	2.831
330.0	2.823
330.5	2.814
331.0	2.808
331.5	2.797
332.0	2.792
332.5	2.790
333.0	2.783
333.5	2.778
334.0	2.776
334.5	2.775
335.0	2.769
335.5	2.770
336.0	2.768
336.5	2.763
337.0	2.756
337.5	2.747
338.0	2.739
338.5	2.733
339.0	2.730
339.5	2.731
340.0	2.729
340.5	2.729
341.0	2.728
341.5	2.718
342.0	2.707
342.5	2.695
343.0	2.690
343.5	2.682
344.0	2.680
344.5	2.682
345.0	2.679
345.5	2.681
346.0	2.680
346.5	2.670
347.0	2.664
347.5	2.656
348.0	2.651
348.5	2.645
349.0	2.643
349.5	2.642
350.0	2.636
350.5	2.635
351.0	2.628
351.5	2.624
352.0	2.621
352.5	2.618
353.0	2.617
353.5	2.610
354.0	2.607
354.5	2.600
355.0	2.595
355.5	2.592
356.0	2.587
356.5	2.586
357.0	2.582
357.5	2.579
358.0	2.574
358.5	2.569
359.0	2.568
359.5	2.563
360.0	2.560
360.5	2.555
361.0	2.548
361.5	2.544
362.0	2.541
362.5	2.536
363.0	2.532
363.5	2.534
364.0	2.532
364.5	2.528
365.0	2.524
365.5	2.518
366.0	2.514
366.5	2.515
367.0	2.513
367.5	2.504
368.0	2.498
368.5	2.494
369.0	2.487
369.5	2.481
370.0	2.477
370.5	2.472
371.0	2.469
371.5	2.464
372.0	2.458
372.5	2.448
373.0	2.442
373.5	2.432
374.0	2.422
374.5	2.412
375.0	2.411
375.5	2.407
376.0	2.408
376.5	2.403
377.0	2.401
377.5	2.397
378.0	2.392
378.5	2.381
379.0	2.374
379.5	2.364
380.0	2.361
380.5	2.355
381.0	2.353
381.5	2.344
382.0	2.342
382.5	2.336
383.0	2.332
383.5	2.326
384.0	2.326
384.5	2.317
385.0	2.311
385.5	2.304
386.0	2.298
386.5	2.293
387.0	2.294
387.5	2.292
388.0	2.290
388.5	2.288
389.0	2.289
389.5	2.281
390.0	2.276
390.5	2.268
391.0	2.261
391.5	2.254
392.0	2.252
392.5	2.245
393.0	2.245
393.5	2.243
394.0	2.241
394.5	2.237
395.0	2.234
395.5	2.231
396.0	2.225
396.5	2.221
397.0	2.217
397.5	2.212
398.0	2.213
398.5	2.211
399.0	2.207
399.5	2.204
400.0	2.202
400.5	2.197
401.0	2.191
401.5	2.188
402.0	2.184
402.5	2.180
403.0	2.181
403.5	2.180
404.0	2.176
404.5	2.174
405.0	2.170
405.5	2.163
406.0	2.159
406.5	2.156
407.0	2.150
407.5	2.148
408.0	2.148
408.5	2.147
409.0	2.142
409.5	2.139
410.0	2.135
410.5	2.131
411.0	2.127
411.5	2.122
412.0	2.118
412.5	2.119
413.0	2.117
413.5	2.118
414.0	2.114
414.5	2.112
415.0	2.110
415.5	2.105
416.0	2.099
416.5	2.096
417.0	2.092
417.5	2.090
418.0	2.088
418.5	2.090
419.0	2.090
419.5	2.090
420.0	2.089
420.5	2.084
421.0	2.078
421.5	2.073
422.0	2.069
422.5	2.064
423.0	2.060
423.5	2.059
424.0	2.059
424.5	2.059
425.0	2.058
425.5	2.056
426.0	2.053
426.5	2.052
427.0	2.052
427.5	2.049
428.0	2.046
428.5	2.042
429.0	2.040
429.5	2.037
430.0	2.032
430.5	2.026
431.0	2.028
431.5	2.030
432.0	2.034
432.5	2.036
433.0	2.038
433.5	2.037
434.0	2.035
434.5	2.029
435.0	2.024
435.5	2.018
436.0	2.017
436.5	2.015
437.0	2.017
437.5	2.017
438.0	2.016
438.5	2.012
439.0	2.009
439.5	2.004
440.0	2.006
440.5	2.003
441.0	2.002
441.5	2.001
442.0	2.001
442.5	1.996
443.0	1.995
443.5	1.992
444.0	1.991
444.5	1.991
445.0	1.991
445.5	1.989
446.0	1.988
446.5	1.985
447.0	1.980
447.5	1.977
448.0	1.978
448.5	1.979
449.0	1.981
449.5	1.981
450.0	1.979
450.5	1.979
451.0	1.977
451.5	1.974
452.0	1.972
452.5	1.972
453.0	1.974
453.5	1.979
454.0	1.980
454.5	1.978
455.0	1.975
455.5	1.969
456.0	1.967
456.5	1.960
457.0	1.959
457.5	1.960
458.0	1.961
458.5	1.961
459.0	1.959
459.5	1.954
460.0	1.951
460.5	1.947
461.0	1.945
461.5	1.942
462.0	1.946
462.5	1.948
463.0	1.951
463.5	1.955
464.0	1.959
464.5	1.954
465.0	1.953
465.5	1.951
466.0	1.945
466.5	1.942
467.0	1.937
467.5	1.936
468.0	1.938
468.5	1.942
469.0	1.943
469.5	1.945
470.0	1.943
470.5	1.942
471.0	1.936
471.5	1.935
472.0	1.929
472.5	1.929
473.0	1.926
473.5	1.924
474.0	1.922
474.5	1.923
475.0	1.919
475.5	1.917
476.0	1.914
476.5	1.915
477.0	1.915
477.5	1.918
478.0	1.917
478.5	1.918
479.0	1.916
479.5	1.915
480.0	1.912
480.5	1.907
481.0	1.903
481.5	1.900
482.0	1.899
482.5	1.899
483.0	1.897
483.5	1.895
484.0	1.893
484.5	1.891
485.0	1.888
485.5	1.882
486.0	1.880
486.5	1.877
487.0	1.876
487.5	1.875
488.0	1.876
488.5	1.876
489.0	1.876
489.5	1.873
490.0	1.871
490.5	1.868
491.0	1.865
491.5	1.861
492.0	1.860
492.5	1.857
493.0	1.854
493.5	1.853
494.0	1.850
494.5	1.844
495.0	1.840
495.5	1.837
496.0	1.833
496.5	1.831
497.0	1.832
497.5	1.832
498.0	1.833
498.5	1.834
499.0	1.835
499.5	1.833
500.0	1.832
500.5	1.832
501.0	1.830
501.5	1.824
502.0	1.821
502.5	1.817
503.0	1.811
503.5	1.807
504.0	1.804
504.5	1.800
505.0	1.799
505.5	1.796
506.0	1.791
506.5	1.785
507.0	1.783
507.5	1.784
508.0	1.784
508.5	1.787
509.0	1.789
509.5	1.789
510.0	1.786
510.5	1.781
511.0	1.778
511.5	1.773
512.0	1.768
512.5	1.762
513.0	1.760
513.5	1.754
514.0	1.748
514.5	1.743
515.0	1.737
515.5	1.737
516.0	1.737
516.5	1.734
517.0	1.732
517.5	1.729
518.0	1.728
518.5	1.722
519.0	1.717
519.5	1.714
520.0	1.707
520.5	1.707
521.0	1.704
521.5	1.704
522.0	1.706
522.5	1.711
523.0	1.712
523.5	1.711
524.0	1.710
524.5	1.703
525.0	1.694
525.5	1.690
526.0	1.682
526.5	1.678
527.0	1.674
527.5	1.675
528.0	1.673
528.5	1.670
529.0	1.670
529.5	1.667
530.0	1.667
530.5	1.666
531.0	1.665
531.5	1.661
532.0	1.659
532.5	1.659
533.0	1.655
533.5	1.651
534.0	1.653
534.5	1.653
535.0	1.654
535.5	1.652
536.0	1.650
536.5	1.645
537.0	1.644
537.5	1.642
538.0	1.641
538.5	1.637
539.0	1.638
539.5	1.638
540.0	1.636
540.5	1.633
541.0	1.632
541.5	1.630
542.0	1.625
542.5	1.620
543.0	1.615
543.5	1.605
544.0	1.599
544.5	1.598
545.0	1.595
545.5	1.592
546.0	1.596
546.5	1.596
547.0	1.594
547.5	1.589
548.0	1.584
548.5	1.578
549.0	1.576
549.5	1.573
550.0	1.571
550.5	1.571
551.0	1.572
551.5	1.574
552.0	1.578
552.5	1.581
553.0	1.582
553.5	1.582
554.0	1.580
554.5	1.574
555.0	1.568
555.5	1.562
556.0	1.559
556.5	1.559
557.0	1.558
557.5	1.561
558.0	1.561
558.5	1.554
559.0	1.552
559.5	1.549
560.0	1.543
560.5	1.541
561.0	1.543
561.5	1.542
562.0	1.547
562.5	1.544
563.0	1.547
563.5	1.544
564.0	1.540
564.5	1.535
565.0	1.532
565.5	1.530
566.0	1.525
566.5	1.523
567.0	1.527
567.5	1.523
568.0	1.527
568.5	1.525
569.0	1.525
569.5	1.524
570.0	1.525
570.5	1.521
571.0	1.517
571.5	1.513
572.0	1.513
572.5	1.510
573.0	1.509
573.5	1.508
574.0	1.510
574.5	1.510
575.0	1.507
575.5	1.504
576.0	1.501
576.5	1.497
577.0	1.497
577.5	1.495
578.0	1.496
578.5	1.495
579.0	1.498
579.5	1.495
580.0	1.493
580.5	1.492
581.0	1.492
581.5	1.488
582.0	1.486
582.5	1.486
583.0	1.485
583.5	1.484
584.0	1.485
584.5	1.483
585.0	1.483
585.5	1.485
586.0	1.483
586.5	1.475
587.0	1.472
587.5	1.472
588.0	1.471
588.5	1.471
589.0	1.470
589.5	1.468
590.0	1.469
590.5	1.470
591.0	1.467
591.5	1.464
592.0	1.461
592.5	1.463
593.0	1.463
593.5	1.459
594.0	1.457
594.5	1.452
595.0	1.449
595.5	1.446
596.0	1.448
596.5	1.447
597.0	1.444
597.5	1.445
598.0	1.444
598.5	1.443
599.0	1.444
599.5	1.442
600.0	1.440
600.5	1.437
601.0	1.439
601.5	1.436
602.0	1.436
602.5	1.436
603.0	1.436
603.5	1.435
604.0	1.435
604.5	1.436
605.0	1.436
605.5	1.433
606.0	1.434
606.5	1.434
607.0	1.432
607.5	1.431
608.0	1.431
608.5	1.427
609.0	1.424
609.5	1.423
610.0	1.422
610.5	1.421
611.0	1.418
611.5	1.414
612.0	1.409
612.5	1.414
613.0	1.413
613.5	1.409
614.0	1.407
614.5	1.408
615.0	1.410
615.5	1.407
616.0	1.406
616.5	1.403
617.0	1.406
617.5	1.406
618.0	1.405
618.5	1.403
619.0	1.402
619.5	1.406
620.0	1.406
620.5	1.401
621.0	1.400
621.5	1.397
622.0	1.394
622.5	1.390
623.0	1.391
623.5	1.390
624.0	1.390
624.5	1.392
625.0	1.392
625.5	1.391
626.0	1.388
626.5	1.383
627.0	1.378
627.5	1.379
628.0	1.382
628.5	1.385
629.0	1.386
629.5	1.384
630.0	1.383
630.5	1.378
631.0	1.371
631.5	1.366
632.0	1.367
632.5	1.369
633.0	1.373
633.5	1.376
634.0	1.378
634.5	1.377
635.0	1.371
635.5	1.367
636.0	1.359
636.5	1.358
637.0	1.360
637.5	1.362
638.0	1.366
638.5	1.370
639.0	1.373
639.5	1.373
640.0	1.371
640.5	1.368
641.0	1.362
641.5	1.365
642.0	1.365
642.5	1.368
643.0	1.368
643.5	1.368
644.0	1.366
644.5	1.362
645.0	1.359
645.5	1.355
646.0	1.351
646.5	1.354
647.0	1.350
647.5	1.346
648.0	1.342
648.5	1.340
649.0	1.340
649.5	1.343
650.0	1.345
650.5	1.352
651.0	1.354
651.5	1.358
652.0	1.356
652.5	1.353
653.0	1.345
653.5	1.337
654.0	1.334
654.5	1.331
655.0	1.328
655.5	1.337
656.0	1.341
656.5	1.348
657.0	1.353
657.5	1.359
658.0	1.354
658.5	1.347
659.0	1.337
659.5	1.327
660.0	1.323
660.5	1.326
661.0	1.327
661.5	1.330
662.0	1.329
662.5	1.326
663.0	1.323
663.5	1.320
664.0	1.315
664.5	1.313
665.0	1.317
665.5	1.322
666.0	1.327
666.5	1.331
667.0	1.330
667.5	1.327
668.0	1.329
668.5	1.332
669.0	1.329
669.5	1.326
670.0	1.319
670.5	1.314
671.0	1.306
671.5	1.301
672.0	1.301
672.5	1.297
673.0	1.300
673.5	1.307
674.0	1.315
674.5	1.320
675.0	1.322
675.5	1.327
676.0	1.323
676.5	1.319
677.0	1.316
677.5	1.313
678.0	1.309
678.5	1.309
679.0	1.307
679.5	1.309
680.0	1.310
680.5	1.310
681.0	1.308
681.5	1.308
682.0	1.310
682.5	1.314
683.0	1.312
683.5	1.311
684.0	1.305
684.5	1.301
685.0	1.295
685.5	1.288
686.0	1.285
686.5	1.284
687.0	1.286
687.5	1.291
688.0	1.293
688.5	1.299
689.0	1.297
689.5	1.296
690.0	1.296
690.5	1.298
691.0	1.295
691.5	1.294
692.0	1.293
692.5	1.293
693.0	1.290
693.5	1.294
694.0	1.293
694.5	1.289
695.0	1.287
695.5	1.286
696.0	1.282
696.5	1.279
697.0	1.274
697.5	1.271
698.0	1.271
698.5	1.275
699.0	1.279
699.5	1.276
700.0	1.278
700.5	1.273
701.0	1.274
701.5	1.275
702.0	1.272
702.5	1.268
703.0	1.263
703.5	1.258
704.0	1.260
704.5	1.255
705.0	1.256
705.5	1.254
706.0	1.260
706.5	1.263
707.0	1.261
707.5	1.262
708.0	1.259
708.5	1.261
709.0	1.263
709.5	1.257
710.0	1.259
710.5	1.257
711.0	1.256
711.5	1.258
712.0	1.258
712.5	1.258
713.0	1.257
713.5	1.261
714.0	1.257
714.5	1.258
715.0	1.257
715.5	1.251
716.0	1.253
716.5	1.257
717.0	1.260
717.5	1.255
718.0	1.255
718.5	1.252
719.0	1.248
719.5	1.248
720.0	1.242
720.5	1.238
721.0	1.240
721.5	1.240
722.0	1.236
722.5	1.232
723.0	1.233
723.5	1.230
724.0	1.230
724.5	1.234
725.0	1.235
725.5	1.237
726.0	1.240
726.5	1.237
727.0	1.232
727.5	1.236
728.0	1.236
728.5	1.235
729.0	1.239
729.5	1.240
730.0	1.240
730.5	1.242
731.0	1.246
731.5	1.241
732.0	1.242
732.5	1.244
733.0	1.240
733.5	1.239
734.0	1.240
734.5	1.235
735.0	1.238
735.5	1.243
736.0	1.248
736.5	1.246
737.0	1.243
737.5	1.235
738.0	1.230
738.5	1.226
739.0	1.214
739.5	1.209
740.0	1.216
740.5	1.223
741.0	1.230
741.5	1.230
742.0	1.226
742.5	1.230
743.0	1.234
743.5	1.234
744.0	1.227
744.5	1.228
745.0	1.227
745.5	1.223
746.0	1.218
746.5	1.211
747.0	1.205
747.5	1.207
748.0	1.203
748.5	1.209
749.0	1.209
749.5	1.210
750.0	1.210
750.5	1.209
751.0	1.208
751.5	1.206
752.0	1.203
752.5	1.198
753.0	1.194
753.5	1.197
754.0	1.191
754.5	1.191
755.0	1.195
755.5	1.196
756.0	1.201
756.5	1.204
757.0	1.206
757.5	1.204
758.0	1.202
758.5	1.193
759.0	1.188
759.5	1.184
760.0	1.185
760.5	1.183
761.0	1.185
761.5	1.187
762.0	1.190
762.5	1.191
763.0	1.192
763.5	1.190
764.0	1.202
764.5	1.207
765.0	1.210
765.5	1.205
766.0	1.208
766.5	1.210
767.0	1.203
767.5	1.200
768.0	1.203
768.5	1.202
769.0	1.202
769.5	1.198
770.0	1.191
770.5	1.184
771.0	1.189
771.5	1.191
772.0	1.190
772.5	1.197
773.0	1.200
773.5	1.201
774.0	1.194
774.5	1.186
775.0	1.177
775.5	1.172
776.0	1.173
776.5	1.175
777.0	1.185
777.5	1.192
778.0	1.196
778.5	1.197
779.0	1.191
779.5	1.181
780.0	1.175
780.5	1.167
781.0	1.166
781.5	1.166
782.0	1.170
782.5	1.172
783.0	1.172
783.5	1.179
784.0	1.186
784.5	1.190
785.0	1.193
785.5	1.199
786.0	1.200
786.5	1.193
787.0	1.186
787.5	1.177
788.0	1.174
788.5	1.171
789.0	1.172
789.5	1.176
790.0	1.178
790.5	1.192
791.0	1.196
791.5	1.191
792.0	1.184
792.5	1.182
793.0	1.175
793.5	1.169
794.0	1.166
794.5	1.162
795.0	1.167
795.5	1.179
796.0	1.184
796.5	1.177
797.0	1.186
797.5	1.189
798.0	1.181
798.5	1.186
799.0	1.173
799.5	1.165
800.0	1.167
800.5	1.163
801.0	1.154
801.5	1.153
802.0	1.161
802.5	1.159
803.0	1.164
803.5	1.169
804.0	1.169
804.5	1.167
805.0	1.168
805.5	1.155
806.0	1.147
806.5	1.147
807.0	1.154
807.5	1.158
808.0	1.163
808.5	1.161
809.0	1.161
809.5	1.155
810.0	1.149
810.5	1.139
811.0	1.135
811.5	1.138
812.0	1.145
812.5	1.152
813.0	1.161
813.5	1.155
814.0	1.159
814.5	1.160
815.0	1.157
815.5	1.152
816.0	1.155
816.5	1.160
817.0	1.172
817.5	1.181
818.0	1.192
818.5	1.185
819.0	1.185
819.5	1.175
820.0	1.164
820.5	1.151
821.0	1.143
821.5	1.135
822.0	1.141
822.5	1.137
823.0	1.144
823.5	1.152
824.0	1.164
824.5	1.176
825.0	1.185
825.5	1.190
826.0	1.192
826.5	1.188
827.0	1.184
827.5	1.170
828.0	1.161
828.5	1.158
829.0	1.149
829.5	1.146
830.0	1.149
830.5	1.158
831.0	1.168
831.5	1.176
832.0	1.180
832.5	1.178
833.0	1.170
833.5	1.159
834.0	1.143
834.5	1.138
835.0	1.140
835.5	1.142
836.0	1.147
836.5	1.159
837.0	1.163
837.5	1.166
838.0	1.158
838.5	1.153
839.0	1.152
839.5	1.148
840.0	1.143
840.5	1.136
841.0	1.135
841.5	1.139
842.0	1.137
842.5	1.141
843.0	1.126
843.5	1.130
844.0	1.128
844.5	1.127
845.0	1.124
845.5	1.121
846.0	1.117
846.5	1.117
847.0	1.120
847.5	1.127
848.0	1.137
848.5	1.158
849.0	1.172
849.5	1.185
850.0	1.175


seed 1
1/30/2025 1:23 PM
Wavelength (nm)	10mm Absorbance
//WLCalib: Shift 	0.11000	
//WLCalib: 261S 	0.08000	
//WLCalib: 362S 	-0.10000	
//WLCalib: 484S 	-0.09000	
//WLCalib: 529S 	-0.06000	
//WLCalib: 823S 	-0.07000	
//QSpecEnd: 
190.0	0.664
190.5	0.580
191.0	0.490
191.5	0.519
192.0	0.748
192.5	0.910
193.0	1.104
193.5	1.253
194.0	1.418
194.5	1.385
195.0	1.388
195.5	1.296
196.0	1.095
196.5	0.966
197.0	1.018
197.5	0.931
198.0	0.859
198.5	1.055
199.0	1.268
199.5	1.316
200.0	1.421
200.5	1.511
201.0	1.491
201.5	1.662
202.0	1.738
202.5	1.721
203.0	1.738
203.5	1.631
204.0	1.611
204.5	1.343
205.0	1.328
205.5	1.483
206.0	1.391
206.5	1.605
207.0	1.973
207.5	2.332
208.0	2.731
208.5	3.263
209.0	4.384
209.5	5.423
210.0	7.025
210.5	8.572
211.0	10.018
211.5	11.714
212.0	13.147
212.5	14.312
213.0	15.414
213.5	16.598
214.0	17.640
214.5	18.221
215.0	18.550
215.5	18.360
216.0	17.741
216.5	16.844
217.0	15.652
217.5	14.349
218.0	13.355
218.5	12.448
219.0	11.510
219.5	10.716
220.0	9.978
220.5	9.336
221.0	8.811
221.5	8.368
222.0	8.010
222.5	7.704
223.0	7.451
223.5	7.243
224.0	7.058
224.5	6.914
225.0	6.817
225.5	6.751
226.0	6.700
226.5	6.689
227.0	6.697
227.5	6.719
228.0	6.763
228.5	6.807
229.0	6.854
229.5	6.917
230.0	6.985
230.5	7.053
231.0	7.131
231.5	7.222
232.0	7.323
232.5	7.437
233.0	7.551
233.5	7.655
234.0	7.758
234.5	7.849
235.0	7.931
235.5	7.997
236.0	8.064
236.5	8.129
237.0	8.191
237.5	8.244
238.0	8.290
238.5	8.338
239.0	8.385
239.5	8.419
240.0	8.445
240.5	8.464
241.0	8.483
241.5	8.491
242.0	8.488
242.5	8.475
243.0	8.460
243.5	8.440
244.0	8.403
244.5	8.349
245.0	8.277
245.5	8.197
246.0	8.111
246.5	8.019
247.0	7.923
247.5	7.833
248.0	7.742
248.5	7.654
249.0	7.550
249.5	7.431
250.0	7.289
250.5	7.140
251.0	6.986
251.5	6.830
252.0	6.676
252.5	6.537
253.0	6.403
253.5	6.270
254.0	6.128
254.5	5.982
255.0	5.825
255.5	5.667
256.0	5.501
256.5	5.340
257.0	5.189
257.5	5.040
258.0	4.891
258.5	4.747
259.0	4.610
259.5	4.488
260.0	4.364
260.5	4.247
261.0	4.129
261.5	4.014
262.0	3.901
262.5	3.782
263.0	3.662
263.5	3.549
264.0	3.435
264.5	3.326
265.0	3.220
265.5	3.121
266.0	3.023
266.5	2.931
267.0	2.846
267.5	2.766
268.0	2.687
268.5	2.612
269.0	2.541
269.5	2.474
270.0	2.408
270.5	2.348
271.0	2.292
271.5	2.243
272.0	2.197
272.5	2.150
273.0	2.103
273.5	2.061
274.0	2.026
274.5	1.990
275.0	1.955
275.5	1.924
276.0	1.897
276.5	1.873
277.0	1.846
277.5	1.825
278.0	1.803
278.5	1.785
279.0	1.770
279.5	1.753
280.0	1.737
280.5	1.723
281.0	1.711
281.5	1.700
282.0	1.686
282.5	1.674
283.0	1.662
283.5	1.650
284.0	1.639
284.5	1.627
285.0	1.613
285.5	1.604
286.0	1.598
286.5	1.592
287.0	1.584
287.5	1.574
288.0	1.569
288.5	1.563
289.0	1.558
289.5	1.551
290.0	1.545
290.5	1.542
291.0	1.535
291.5	1.527
292.0	1.519
292.5	1.515
293.0	1.514
293.5	1.512
294.0	1.511
294.5	1.506
295.0	1.502
295.5	1.498
296.0	1.490
296.5	1.481
297.0	1.475
297.5	1.473
298.0	1.468
298.5	1.464
299.0	1.462
299.5	1.458
300.0	1.454
300.5	1.451
301.0	1.444
301.5	1.441
302.0	1.439
302.5	1.436
303.0	1.434
303.5	1.432
304.0	1.430
304.5	1.425
305.0	1.421
305.5	1.420
306.0	1.415
306.5	1.410
307.0	1.402
307.5	1.396
308.0	1.395
308.5	1.391
309.0	1.388
309.5	1.388
310.0	1.389
310.5	1.387
311.0	1.385
311.5	1.382
312.0	1.379
312.5	1.369
313.0	1.361
313.5	1.355
314.0	1.353
314.5	1.352
315.0	1.349
315.5	1.348
316.0	1.352
316.5	1.352
317.0	1.350
317.5	1.342
318.0	1.337
318.5	1.336
319.0	1.337
319.5	1.338
320.0	1.332
320.5	1.330
321.0	1.325
321.5	1.314
322.0	1.308
322.5	1.301
323.0	1.295
323.5	1.297
324.0	1.299
324.5	1.302
325.0	1.298
325.5	1.297
326.0	1.294
326.5	1.291
327.0	1.287
327.5	1.283
328.0	1.280
328.5	1.281
329.0	1.278
329.5	1.275
330.0	1.273
330.5	1.269
331.0	1.265
331.5	1.260
332.0	1.255
332.5	1.252
333.0	1.251
333.5	1.252
334.0	1.250
334.5	1.248
335.0	1.251
335.5	1.248
336.0	1.245
336.5	1.238
337.0	1.234
337.5	1.234
338.0	1.235
338.5	1.232
339.0	1.229
339.5	1.227
340.0	1.224
340.5	1.223
341.0	1.225
341.5	1.221
342.0	1.218
342.5	1.217
343.0	1.210
343.5	1.201
344.0	1.197
344.5	1.188
345.0	1.184
345.5	1.187
346.0	1.187
346.5	1.185
347.0	1.183
347.5	1.179
348.0	1.173
348.5	1.167
349.0	1.164
349.5	1.161
350.0	1.165
350.5	1.166
351.0	1.167
351.5	1.170
352.0	1.169
352.5	1.164
353.0	1.160
353.5	1.154
354.0	1.150
354.5	1.150
355.0	1.152
355.5	1.153
356.0	1.157
356.5	1.160
357.0	1.163
357.5	1.160
358.0	1.157
358.5	1.153
359.0	1.148
359.5	1.146
360.0	1.144
360.5	1.143
361.0	1.144
361.5	1.146
362.0	1.148
362.5	1.142
363.0	1.143
363.5	1.140
364.0	1.136
364.5	1.133
365.0	1.134
365.5	1.134
366.0	1.134
366.5	1.134
367.0	1.138
367.5	1.138
368.0	1.142
368.5	1.140
369.0	1.140
369.5	1.138
370.0	1.137
370.5	1.135
371.0	1.134
371.5	1.131
372.0	1.132
372.5	1.131
373.0	1.133
373.5	1.133
374.0	1.133
374.5	1.134
375.0	1.133
375.5	1.134
376.0	1.138
376.5	1.133
377.0	1.132
377.5	1.131
378.0	1.133
378.5	1.133
379.0	1.132
379.5	1.130
380.0	1.128
380.5	1.127
381.0	1.126
381.5	1.119
382.0	1.117
382.5	1.113
383.0	1.116
383.5	1.117
384.0	1.118
384.5	1.115
385.0	1.115
385.5	1.115
386.0	1.114
386.5	1.112
387.0	1.109
387.5	1.105
388.0	1.106
388.5	1.105
389.0	1.103
389.5	1.102
390.0	1.100
390.5	1.099
391.0	1.099
391.5	1.098
392.0	1.099
392.5	1.098
393.0	1.099
393.5	1.099
394.0	1.098
394.5	1.101
395.0	1.100
395.5	1.098
396.0	1.096
396.5	1.095
397.0	1.093
397.5	1.087
398.0	1.083
398.5	1.078
399.0	1.075
399.5	1.075
400.0	1.076
400.5	1.074
401.0	1.074
401.5	1.075
402.0	1.074
402.5	1.070
403.0	1.069
403.5	1.065
404.0	1.061
404.5	1.060
405.0	1.059
405.5	1.058
406.0	1.057
406.5	1.057
407.0	1.055
407.5	1.050
408.0	1.049
408.5	1.047
409.0	1.042
409.5	1.040
410.0	1.041
410.5	1.042
411.0	1.042
411.5	1.042
412.0	1.041
412.5	1.037
413.0	1.036
413.5	1.035
414.0	1.032
414.5	1.032
415.0	1.032
415.5	1.032
416.0	1.032
416.5	1.033
417.0	1.032
417.5	1.029
418.0	1.027
418.5	1.028
419.0	1.026
419.5	1.029
420.0	1.029
420.5	1.030
421.0	1.029
421.5	1.029
422.0	1.028
422.5	1.025
423.0	1.025
423.5	1.024
424.0	1.023
424.5	1.024
425.0	1.022
425.5	1.022
426.0	1.020
426.5	1.020
427.0	1.019
427.5	1.017
428.0	1.013
428.5	1.009
429.0	1.007
429.5	1.006
430.0	1.002
430.5	1.002
431.0	0.999
431.5	0.999
432.0	0.996
432.5	0.993
433.0	0.989
433.5	0.991
434.0	0.990
434.5	0.990
435.0	0.989
435.5	0.989
436.0	0.990
436.5	0.992
437.0	0.994
437.5	0.995
438.0	0.996
438.5	0.999
439.0	0.996
439.5	0.993
440.0	0.989
440.5	0.984
441.0	0.982
441.5	0.979
442.0	0.979
442.5	0.978
443.0	0.979
443.5	0.981
444.0	0.982
444.5	0.982
445.0	0.980
445.5	0.979
446.0	0.979
446.5	0.978
447.0	0.976
447.5	0.972
448.0	0.971
448.5	0.968
449.0	0.964
449.5	0.962
450.0	0.960
450.5	0.959
451.0	0.961
451.5	0.963
452.0	0.961
452.5	0.960
453.0	0.963
453.5	0.963
454.0	0.961
454.5	0.960
455.0	0.960
455.5	0.959
456.0	0.960
456.5	0.958
457.0	0.955
457.5	0.953
458.0	0.952
458.5	0.950
459.0	0.948
459.5	0.945
460.0	0.945
460.5	0.945
461.0	0.945
461.5	0.943
462.0	0.943
462.5	0.943
463.0	0.943
463.5	0.945
464.0	0.947
464.5	0.946
465.0	0.945
465.5	0.942
466.0	0.942
466.5	0.938
467.0	0.938
467.5	0.940
468.0	0.939
468.5	0.941
469.0	0.941
469.5	0.940
470.0	0.942
470.5	0.941
471.0	0.943
471.5	0.943
472.0	0.944
472.5	0.945
473.0	0.942
473.5	0.943
474.0	0.940
474.5	0.937
475.0	0.938
475.5	0.939
476.0	0.940
476.5	0.940
477.0	0.940
477.5	0.943
478.0	0.944
478.5	0.945
479.0	0.945
479.5	0.944
480.0	0.944
480.5	0.945
481.0	0.947
481.5	0.948
482.0	0.950
482.5	0.954
483.0	0.959
483.5	0.960
484.0	0.963
484.5	0.964
485.0	0.965
485.5	0.967
486.0	0.968
486.5	0.971
487.0	0.973
487.5	0.977
488.0	0.982
488.5	0.988
489.0	0.991
489.5	0.991
490.0	0.995
490.5	1.000
491.0	1.005
491.5	1.010
492.0	1.013
492.5	1.019
493.0	1.025
493.5	1.031
494.0	1.033
494.5	1.032
495.0	1.035
495.5	1.038
496.0	1.042
496.5	1.044
497.0	1.048
497.5	1.055
498.0	1.061
498.5	1.068
499.0	1.077
499.5	1.082
500.0	1.090
500.5	1.099
501.0	1.105
501.5	1.112
502.0	1.119
502.5	1.126
503.0	1.134
503.5	1.139
504.0	1.147
504.5	1.152
505.0	1.160
505.5	1.166
506.0	1.169
506.5	1.175
507.0	1.181
507.5	1.186
508.0	1.191
508.5	1.194
509.0	1.197
509.5	1.202
510.0	1.209
510.5	1.212
511.0	1.216
511.5	1.224
512.0	1.229
512.5	1.231
513.0	1.235
513.5	1.236
514.0	1.232
514.5	1.230
515.0	1.232
515.5	1.230
516.0	1.235
516.5	1.240
517.0	1.244
517.5	1.247
518.0	1.252
518.5	1.255
519.0	1.256
519.5	1.253
520.0	1.255
520.5	1.254
521.0	1.254
521.5	1.250
522.0	1.248
522.5	1.245
523.0	1.239
523.5	1.238
524.0	1.236
524.5	1.232
525.0	1.229
525.5	1.227
526.0	1.224
526.5	1.222
527.0	1.221
527.5	1.223
528.0	1.221
528.5	1.221
529.0	1.218
529.5	1.215
530.0	1.211
530.5	1.207
531.0	1.202
531.5	1.199
532.0	1.196
532.5	1.196
533.0	1.190
533.5	1.185
534.0	1.181
534.5	1.179
535.0	1.175
535.5	1.171
536.0	1.163
536.5	1.157
537.0	1.149
537.5	1.142
538.0	1.135
538.5	1.129
539.0	1.126
539.5	1.124
540.0	1.123
540.5	1.121
541.0	1.119
541.5	1.115
542.0	1.109
542.5	1.102
543.0	1.097
543.5	1.093
544.0	1.088
544.5	1.084
545.0	1.080
545.5	1.077
546.0	1.070
546.5	1.060
547.0	1.052
547.5	1.044
548.0	1.038
548.5	1.033
549.0	1.026
549.5	1.019
550.0	1.014
550.5	1.008
551.0	1.000
551.5	0.992
552.0	0.989
552.5	0.982
553.0	0.977
553.5	0.972
554.0	0.965
554.5	0.955
555.0	0.947
555.5	0.938
556.0	0.931
556.5	0.927
557.0	0.926
557.5	0.923
558.0	0.923
558.5	0.920
559.0	0.913
559.5	0.904
560.0	0.893
560.5	0.881
561.0	0.874
561.5	0.869
562.0	0.864
562.5	0.860
563.0	0.856
563.5	0.852
564.0	0.845
564.5	0.838
565.0	0.830
565.5	0.824
566.0	0.823
566.5	0.819
567.0	0.810
567.5	0.807
568.0	0.806
568.5	0.803
569.0	0.799
569.5	0.794
570.0	0.789
570.5	0.782
571.0	0.779
571.5	0.774
572.0	0.767
572.5	0.766
573.0	0.764
573.5	0.764
574.0	0.765
574.5	0.763
575.0	0.759
575.5	0.753
576.0	0.749
576.5	0.746
577.0	0.741
577.5	0.740
578.0	0.739
578.5	0.743
579.0	0.747
579.5	0.749
580.0	0.747
580.5	0.743
581.0	0.741
581.5	0.735
582.0	0.731
582.5	0.728
583.0	0.726
583.5	0.727
584.0	0.724
584.5	0.722
585.0	0.719
585.5	0.716
586.0	0.719
586.5	0.717
587.0	0.721
587.5	0.722
588.0	0.726
588.5	0.727
589.0	0.726
589.5	0.723
590.0	0.724
590.5	0.722
591.0	0.727
591.5	0.731
592.0	0.733
592.5	0.736
593.0	0.742
593.5	0.743
594.0	0.743
594.5	0.743
595.0	0.745
595.5	0.746
596.0	0.749
596.5	0.748
597.0	0.749
597.5	0.751
598.0	0.753
598.5	0.753
599.0	0.753
599.5	0.757
600.0	0.764
600.5	0.769
601.0	0.777
601.5	0.782
602.0	0.790
602.5	0.797
603.0	0.799
603.5	0.801
604.0	0.804
604.5	0.808
605.0	0.814
605.5	0.818
606.0	0.823
606.5	0.829
607.0	0.836
607.5	0.844
608.0	0.849
608.5	0.855
609.0	0.863
609.5	0.871
610.0	0.880
610.5	0.888
611.0	0.891
611.5	0.898
612.0	0.903
612.5	0.909
613.0	0.913
613.5	0.919
614.0	0.929
614.5	0.937
615.0	0.949
615.5	0.960
616.0	0.969
616.5	0.978
617.0	0.984
617.5	0.988
618.0	0.992
618.5	1.002
619.0	1.013
619.5	1.024
620.0	1.041
620.5	1.058
621.0	1.069
621.5	1.080
622.0	1.089
622.5	1.096
623.0	1.099
623.5	1.108
624.0	1.115
624.5	1.125
625.0	1.135
625.5	1.151
626.0	1.162
626.5	1.170
627.0	1.184
627.5	1.196
628.0	1.205
628.5	1.218
629.0	1.224
629.5	1.236
630.0	1.246
630.5	1.259
631.0	1.264
631.5	1.269
632.0	1.281
632.5	1.291
633.0	1.304
633.5	1.320
634.0	1.335
634.5	1.350
635.0	1.364
635.5	1.379
636.0	1.385
636.5	1.396
637.0	1.409
637.5	1.419
638.0	1.432
638.5	1.446
639.0	1.456
639.5	1.462
640.0	1.477
640.5	1.490
641.0	1.502
641.5	1.518
642.0	1.533
642.5	1.546
643.0	1.561
643.5	1.567
644.0	1.569
644.5	1.576
645.0	1.584
645.5	1.597
646.0	1.607
646.5	1.618
647.0	1.632
647.5	1.648
648.0	1.658
648.5	1.664
649.0	1.672
649.5	1.682
650.0	1.691
650.5	1.700
651.0	1.703
651.5	1.714
652.0	1.727
652.5	1.737
653.0	1.747
653.5	1.765
654.0	1.781
654.5	1.794
655.0	1.808
655.5	1.817
656.0	1.822
656.5	1.831
657.0	1.838
657.5	1.842
658.0	1.851
658.5	1.857
659.0	1.861
659.5	1.863
660.0	1.868
660.5	1.873
661.0	1.875
661.5	1.882
662.0	1.894
662.5	1.905
663.0	1.921
663.5	1.931
664.0	1.936
664.5	1.940
665.0	1.941
665.5	1.942
666.0	1.939
666.5	1.947
667.0	1.956
667.5	1.959
668.0	1.969
668.5	1.974
669.0	1.978
669.5	1.983
670.0	1.989
670.5	1.996
671.0	2.003
671.5	2.015
672.0	2.025
672.5	2.022
673.0	2.023
673.5	2.026
674.0	2.027
674.5	2.032
675.0	2.036
675.5	2.035
676.0	2.037
676.5	2.037
677.0	2.040
677.5	2.043
678.0	2.050
678.5	2.059
679.0	2.067
679.5	2.076
680.0	2.082
680.5	2.081
681.0	2.077
681.5	2.071
682.0	2.066
682.5	2.068
683.0	2.070
683.5	2.074
684.0	2.081
684.5	2.086
685.0	2.087
685.5	2.086
686.0	2.081
686.5	2.084
687.0	2.078
687.5	2.080
688.0	2.082
688.5	2.090
689.0	2.094
689.5	2.102
690.0	2.106
690.5	2.111
691.0	2.111
691.5	2.114
692.0	2.105
692.5	2.104
693.0	2.103
693.5	2.102
694.0	2.101
694.5	2.108
695.0	2.108
695.5	2.116
696.0	2.119
696.5	2.114
697.0	2.111
697.5	2.116
698.0	2.118
698.5	2.124
699.0	2.126
699.5	2.124
700.0	2.120
700.5	2.126
701.0	2.124
701.5	2.114
702.0	2.111
702.5	2.109
703.0	2.108
703.5	2.110
704.0	2.107
704.5	2.105
705.0	2.108
705.5	2.106
706.0	2.103
706.5	2.101
707.0	2.100
707.5	2.097
708.0	2.097
708.5	2.100
709.0	2.105
709.5	2.111
710.0	2.115
710.5	2.118
711.0	2.121
711.5	2.120
712.0	2.116
712.5	2.109
713.0	2.103
713.5	2.103
714.0	2.103
714.5	2.105
715.0	2.109
715.5	2.113
716.0	2.117
716.5	2.121
717.0	2.120
717.5	2.110
718.0	2.109
718.5	2.106
719.0	2.100
719.5	2.095
720.0	2.090
720.5	2.086
721.0	2.090
721.5	2.093
722.0	2.090
722.5	2.088
723.0	2.089
723.5	2.090
724.0	2.090
724.5	2.085
725.0	2.085
725.5	2.084
726.0	2.082
726.5	2.080
727.0	2.073
727.5	2.072
728.0	2.071
728.5	2.072
729.0	2.070
729.5	2.070
730.0	2.071
730.5	2.069
731.0	2.065
731.5	2.057
732.0	2.054
732.5	2.058
733.0	2.064
733.5	2.060
734.0	2.055
734.5	2.057
735.0	2.053
735.5	2.051
736.0	2.047
736.5	2.041
737.0	2.035
737.5	2.034
738.0	2.028
738.5	2.017
739.0	2.015
739.5	2.017
740.0	2.011
740.5	2.009
741.0	2.004
741.5	1.998
742.0	1.985
742.5	1.982
743.0	1.974
743.5	1.974
744.0	1.978
744.5	1.982
745.0	1.988
745.5	1.991
746.0	1.986
746.5	1.988
747.0	1.983
747.5	1.978
748.0	1.971
748.5	1.967
749.0	1.960
749.5	1.962
750.0	1.962
750.5	1.958
751.0	1.953
751.5	1.952
752.0	1.947
752.5	1.939
753.0	1.934
753.5	1.922
754.0	1.915
754.5	1.907
755.0	1.898
755.5	1.895
756.0	1.891
756.5	1.892
757.0	1.893
757.5	1.886
758.0	1.888
758.5	1.884
759.0	1.879
759.5	1.871
760.0	1.869
760.5	1.874
761.0	1.877
761.5	1.880
762.0	1.875
762.5	1.871
763.0	1.868
763.5	1.866
764.0	1.866
764.5	1.861
765.0	1.858
765.5	1.861
766.0	1.858
766.5	1.853
767.0	1.842
767.5	1.829
768.0	1.809
768.5	1.808
769.0	1.799
769.5	1.789
770.0	1.779
770.5	1.783
771.0	1.781
771.5	1.777
772.0	1.775
772.5	1.772
773.0	1.768
773.5	1.771
774.0	1.767
774.5	1.763
775.0	1.757
775.5	1.757
776.0	1.747
776.5	1.738
777.0	1.737
777.5	1.733
778.0	1.724
778.5	1.718
779.0	1.717
779.5	1.708
780.0	1.699
780.5	1.689
781.0	1.685
781.5	1.688
782.0	1.695
782.5	1.692
783.0	1.689
783.5	1.694
784.0	1.691
784.5	1.684
785.0	1.677
785.5	1.666
786.0	1.666
786.5	1.664
787.0	1.658
787.5	1.649
788.0	1.648
788.5	1.651
789.0	1.649
789.5	1.652
790.0	1.662
790.5	1.664
791.0	1.665
791.5	1.658
792.0	1.647
792.5	1.639
793.0	1.632
793.5	1.627
794.0	1.620
794.5	1.612
795.0	1.615
795.5	1.609
796.0	1.598
796.5	1.594
797.0	1.586
797.5	1.581
798.0	1.574
798.5	1.567
799.0	1.556
799.5	1.554
800.0	1.555
800.5	1.552
801.0	1.548
801.5	1.556
802.0	1.558
802.5	1.557
803.0	1.555
803.5	1.550
804.0	1.544
804.5	1.537
805.0	1.524
805.5	1.516
806.0	1.519
806.5	1.529
807.0	1.524
807.5	1.520
808.0	1.516
808.5	1.515
809.0	1.513
809.5	1.506
810.0	1.495
810.5	1.494
811.0	1.500
811.5	1.497
812.0	1.489
812.5	1.484
813.0	1.481
813.5	1.484
814.0	1.481
814.5	1.469
815.0	1.461
815.5	1.452
816.0	1.455
816.5	1.452
817.0	1.446
817.5	1.437
818.0	1.432
818.5	1.429
819.0	1.423
819.5	1.416
820.0	1.421
820.5	1.416
821.0	1.421
821.5	1.414
822.0	1.402
822.5	1.394
823.0	1.394
823.5	1.397
824.0	1.399
824.5	1.411
825.0	1.420
825.5	1.424
826.0	1.424
826.5	1.421
827.0	1.411
827.5	1.407
828.0	1.405
828.5	1.403
829.0	1.397
829.5	1.396
830.0	1.387
830.5	1.377
831.0	1.373
831.5	1.372
832.0	1.361
832.5	1.356
833.0	1.357
833.5	1.358
834.0	1.356
834.5	1.358
835.0	1.351
835.5	1.342
836.0	1.337
836.5	1.325
837.0	1.313
837.5	1.312
838.0	1.312
838.5	1.310
839.0	1.310
839.5	1.314
840.0	1.313
840.5	1.308
841.0	1.298
841.5	1.291
842.0	1.291
842.5	1.283
843.0	1.262
843.5	1.245
844.0	1.232
844.5	1.241
845.0	1.255
845.5	1.259
846.0	1.262
846.5	1.255
847.0	1.250
847.5	1.232
848.0	1.225
848.5	1.220
849.0	1.210
849.5	1.223
850.0	1.234


600hcl 1
1/30/2025 1:25 PM
Wavelength (nm)	10mm Absorbance
//WLCalib: Shift 	0.11000	
//WLCalib: 261S 	0.08000	
//WLCalib: 362S 	-0.10000	
//WLCalib: 484S 	-0.09000	
//WLCalib: 529S 	-0.06000	
//WLCalib: 823S 	-0.07000	
//QSpecEnd: 
190.0	0.819
190.5	0.924
191.0	0.762
191.5	0.836
192.0	0.878
192.5	0.648
193.0	0.710
193.5	0.907
194.0	0.962
194.5	1.122
195.0	1.293
195.5	1.350
196.0	1.212
196.5	1.105
197.0	0.845
197.5	0.721
198.0	0.898
198.5	1.063
199.0	1.150
199.5	1.352
200.0	1.447
200.5	1.436
201.0	1.333
201.5	1.075
202.0	0.959
202.5	0.955
203.0	0.933
203.5	0.932
204.0	1.127
204.5	1.390
205.0	1.436
205.5	1.633
206.0	1.788
206.5	1.921
207.0	2.199
207.5	2.332
208.0	2.780
208.5	3.625
209.0	4.536
209.5	5.694
210.0	7.167
210.5	8.673
211.0	10.191
211.5	11.726
212.0	13.111
212.5	14.545
213.0	15.763
213.5	16.778
214.0	17.738
214.5	18.350
215.0	18.637
215.5	18.307
216.0	17.841
216.5	17.000
217.0	15.988
217.5	14.792
218.0	13.570
218.5	12.597
219.0	11.679
219.5	10.810
220.0	10.013
220.5	9.376
221.0	8.841
221.5	8.359
222.0	7.988
222.5	7.658
223.0	7.382
223.5	7.146
224.0	6.959
224.5	6.811
225.0	6.705
225.5	6.627
226.0	6.576
226.5	6.556
227.0	6.553
227.5	6.565
228.0	6.594
228.5	6.636
229.0	6.677
229.5	6.726
230.0	6.776
230.5	6.833
231.0	6.894
231.5	6.968
232.0	7.051
232.5	7.142
233.0	7.234
233.5	7.328
234.0	7.415
234.5	7.497
235.0	7.571
235.5	7.642
236.0	7.710
236.5	7.772
237.0	7.832
237.5	7.880
238.0	7.921
238.5	7.966
239.0	7.996
239.5	8.024
240.0	8.049
240.5	8.071
241.0	8.087
241.5	8.092
242.0	8.085
242.5	8.073
243.0	8.050
243.5	8.026
244.0	7.984
244.5	7.935
245.0	7.877
245.5	7.807
246.0	7.731
246.5	7.651
247.0	7.567
247.5	7.485
248.0	7.399
248.5	7.315
249.0	7.216
249.5	7.106
250.0	6.982
250.5	6.847
251.0	6.705
251.5	6.565
252.0	6.426
252.5	6.292
253.0	6.167
253.5	6.039
254.0	5.909
254.5	5.779
255.0	5.636
255.5	5.492
256.0	5.340
256.5	5.188
257.0	5.041
257.5	4.894
258.0	4.752
258.5	4.619
259.0	4.495
259.5	4.385
260.0	4.277
260.5	4.177
261.0	4.073
261.5	3.963
262.0	3.856
262.5	3.745
263.0	3.634
263.5	3.523
264.0	3.413
264.5	3.310
265.0	3.213
265.5	3.119
266.0	3.029
266.5	2.944
267.0	2.868
267.5	2.796
268.0	2.725
268.5	2.657
269.0	2.591
269.5	2.526
270.0	2.467
270.5	2.413
271.0	2.363
271.5	2.315
272.0	2.273
272.5	2.231
273.0	2.188
273.5	2.145
274.0	2.102
274.5	2.064
275.0	2.031
275.5	2.002
276.0	1.975
276.5	1.954
277.0	1.935
277.5	1.912
278.0	1.894
278.5	1.876
279.0	1.859
279.5	1.841
280.0	1.824
280.5	1.806
281.0	1.793
281.5	1.783
282.0	1.769
282.5	1.757
283.0	1.749
283.5	1.740
284.0	1.730
284.5	1.717
285.0	1.704
285.5	1.693
286.0	1.689
286.5	1.681
287.0	1.672
287.5	1.660
288.0	1.653
288.5	1.644
289.0	1.637
289.5	1.630
290.0	1.624
290.5	1.622
291.0	1.620
291.5	1.611
292.0	1.604
292.5	1.597
293.0	1.592
293.5	1.584
294.0	1.577
294.5	1.570
295.0	1.563
295.5	1.559
296.0	1.553
296.5	1.549
297.0	1.548
297.5	1.548
298.0	1.544
298.5	1.536
299.0	1.528
299.5	1.522
300.0	1.512
300.5	1.505
301.0	1.499
301.5	1.494
302.0	1.493
302.5	1.490
303.0	1.484
303.5	1.484
304.0	1.479
304.5	1.476
305.0	1.471
305.5	1.469
306.0	1.462
306.5	1.456
307.0	1.452
307.5	1.448
308.0	1.447
308.5	1.446
309.0	1.439
309.5	1.437
310.0	1.433
310.5	1.429
311.0	1.423
311.5	1.421
312.0	1.418
312.5	1.414
313.0	1.410
313.5	1.404
314.0	1.403
314.5	1.399
315.0	1.392
315.5	1.388
316.0	1.389
316.5	1.387
317.0	1.383
317.5	1.376
318.0	1.372
318.5	1.372
319.0	1.374
319.5	1.371
320.0	1.366
320.5	1.363
321.0	1.358
321.5	1.348
322.0	1.343
322.5	1.335
323.0	1.331
323.5	1.334
324.0	1.336
324.5	1.335
325.0	1.329
325.5	1.325
326.0	1.317
326.5	1.312
327.0	1.311
327.5	1.310
328.0	1.310
328.5	1.316
329.0	1.314
329.5	1.310
330.0	1.301
330.5	1.295
331.0	1.288
331.5	1.284
332.0	1.280
332.5	1.276
333.0	1.277
333.5	1.280
334.0	1.277
334.5	1.270
335.0	1.268
335.5	1.265
336.0	1.261
336.5	1.257
337.0	1.255
337.5	1.252
338.0	1.256
338.5	1.255
339.0	1.251
339.5	1.246
340.0	1.245
340.5	1.241
341.0	1.239
341.5	1.236
342.0	1.232
342.5	1.229
343.0	1.224
343.5	1.223
344.0	1.222
344.5	1.217
345.0	1.213
345.5	1.212
346.0	1.213
346.5	1.208
347.0	1.202
347.5	1.197
348.0	1.191
348.5	1.189
349.0	1.188
349.5	1.187
350.0	1.189
350.5	1.188
351.0	1.187
351.5	1.185
352.0	1.182
352.5	1.181
353.0	1.177
353.5	1.175
354.0	1.178
354.5	1.183
355.0	1.185
355.5	1.182
356.0	1.182
356.5	1.181
357.0	1.181
357.5	1.180
358.0	1.176
358.5	1.172
359.0	1.170
359.5	1.168
360.0	1.164
360.5	1.160
361.0	1.161
361.5	1.164
362.0	1.167
362.5	1.167
363.0	1.168
363.5	1.166
364.0	1.164
364.5	1.159
365.0	1.156
365.5	1.151
366.0	1.153
366.5	1.155
367.0	1.158
367.5	1.159
368.0	1.164
368.5	1.164
369.0	1.164
369.5	1.160
370.0	1.155
370.5	1.152
371.0	1.153
371.5	1.151
372.0	1.149
372.5	1.147
373.0	1.150
373.5	1.149
374.0	1.149
374.5	1.147
375.0	1.148
375.5	1.148
376.0	1.147
376.5	1.142
377.0	1.141
377.5	1.145
378.0	1.148
378.5	1.149
379.0	1.149
379.5	1.147
380.0	1.146
380.5	1.144
381.0	1.137
381.5	1.130
382.0	1.127
382.5	1.127
383.0	1.123
383.5	1.125
384.0	1.125
384.5	1.124
385.0	1.127
385.5	1.129
386.0	1.128
386.5	1.128
387.0	1.126
387.5	1.125
388.0	1.123
388.5	1.122
389.0	1.120
389.5	1.118
390.0	1.116
390.5	1.112
391.0	1.111
391.5	1.109
392.0	1.107
392.5	1.107
393.0	1.111
393.5	1.110
394.0	1.109
394.5	1.108
395.0	1.106
395.5	1.105
396.0	1.103
396.5	1.098
397.0	1.096
397.5	1.094
398.0	1.093
398.5	1.089
399.0	1.088
399.5	1.089
400.0	1.089
400.5	1.090
401.0	1.088
401.5	1.082
402.0	1.082
402.5	1.081
403.0	1.082
403.5	1.082
404.0	1.080
404.5	1.078
405.0	1.076
405.5	1.075
406.0	1.072
406.5	1.069
407.0	1.071
407.5	1.069
408.0	1.067
408.5	1.064
409.0	1.060
409.5	1.057
410.0	1.054
410.5	1.054
411.0	1.053
411.5	1.053
412.0	1.051
412.5	1.047
413.0	1.045
413.5	1.046
414.0	1.044
414.5	1.044
415.0	1.043
415.5	1.043
416.0	1.043
416.5	1.042
417.0	1.038
417.5	1.037
418.0	1.036
418.5	1.038
419.0	1.037
419.5	1.040
420.0	1.041
420.5	1.045
421.0	1.045
421.5	1.044
422.0	1.044
422.5	1.043
423.0	1.042
423.5	1.041
424.0	1.038
424.5	1.038
425.0	1.034
425.5	1.034
426.0	1.032
426.5	1.028
427.0	1.027
427.5	1.025
428.0	1.021
428.5	1.017
429.0	1.014
429.5	1.013
430.0	1.010
430.5	1.010
431.0	1.010
431.5	1.010
432.0	1.010
432.5	1.008
433.0	1.007
433.5	1.009
434.0	1.009
434.5	1.008
435.0	1.007
435.5	1.005
436.0	1.005
436.5	1.004
437.0	1.004
437.5	1.004
438.0	1.003
438.5	1.003
439.0	1.002
439.5	1.000
440.0	1.000
440.5	0.998
441.0	0.996
441.5	0.993
442.0	0.990
442.5	0.988
443.0	0.988
443.5	0.989
444.0	0.992
444.5	0.994
445.0	0.995
445.5	0.992
446.0	0.992
446.5	0.991
447.0	0.989
447.5	0.987
448.0	0.988
448.5	0.985
449.0	0.984
449.5	0.984
450.0	0.979
450.5	0.975
451.0	0.974
451.5	0.975
452.0	0.973
452.5	0.972
453.0	0.973
453.5	0.972
454.0	0.974
454.5	0.975
455.0	0.974
455.5	0.972
456.0	0.972
456.5	0.970
457.0	0.965
457.5	0.963
458.0	0.965
458.5	0.966
459.0	0.965
459.5	0.964
460.0	0.964
460.5	0.965
461.0	0.966
461.5	0.968
462.0	0.964
462.5	0.967
463.0	0.971
463.5	0.972
464.0	0.971
464.5	0.968
465.0	0.965
465.5	0.961
466.0	0.960
466.5	0.957
467.0	0.955
467.5	0.956
468.0	0.957
468.5	0.959
469.0	0.961
469.5	0.961
470.0	0.963
470.5	0.963
471.0	0.965
471.5	0.964
472.0	0.965
472.5	0.963
473.0	0.962
473.5	0.962
474.0	0.961
474.5	0.961
475.0	0.962
475.5	0.963
476.0	0.966
476.5	0.966
477.0	0.965
477.5	0.965
478.0	0.964
478.5	0.965
479.0	0.968
479.5	0.970
480.0	0.971
480.5	0.971
481.0	0.971
481.5	0.969
482.0	0.968
482.5	0.970
483.0	0.974
483.5	0.980
484.0	0.985
484.5	0.989
485.0	0.994
485.5	0.995
486.0	0.997
486.5	1.002
487.0	1.006
487.5	1.008
488.0	1.012
488.5	1.018
489.0	1.021
489.5	1.022
490.0	1.028
490.5	1.031
491.0	1.037
491.5	1.043
492.0	1.049
492.5	1.052
493.0	1.055
493.5	1.060
494.0	1.061
494.5	1.060
495.0	1.064
495.5	1.066
496.0	1.069
496.5	1.071
497.0	1.078
497.5	1.084
498.0	1.091
498.5	1.100
499.0	1.112
499.5	1.118
500.0	1.127
500.5	1.132
501.0	1.136
501.5	1.140
502.0	1.146
502.5	1.151
503.0	1.159
503.5	1.167
504.0	1.178
504.5	1.182
505.0	1.185
505.5	1.190
506.0	1.196
506.5	1.199
507.0	1.205
507.5	1.211
508.0	1.216
508.5	1.221
509.0	1.224
509.5	1.225
510.0	1.228
510.5	1.234
511.0	1.238
511.5	1.243
512.0	1.246
512.5	1.248
513.0	1.250
513.5	1.250
514.0	1.249
514.5	1.250
515.0	1.251
515.5	1.251
516.0	1.250
516.5	1.253
517.0	1.254
517.5	1.254
518.0	1.254
518.5	1.256
519.0	1.256
519.5	1.261
520.0	1.261
520.5	1.259
521.0	1.257
521.5	1.252
522.0	1.247
522.5	1.241
523.0	1.238
523.5	1.235
524.0	1.236
524.5	1.239
525.0	1.238
525.5	1.235
526.0	1.229
526.5	1.224
527.0	1.220
527.5	1.222
528.0	1.222
528.5	1.221
529.0	1.223
529.5	1.222
530.0	1.216
530.5	1.209
531.0	1.203
531.5	1.200
532.0	1.197
532.5	1.200
533.0	1.198
533.5	1.195
534.0	1.193
534.5	1.188
535.0	1.181
535.5	1.175
536.0	1.169
536.5	1.165
537.0	1.159
537.5	1.157
538.0	1.155
538.5	1.156
539.0	1.154
539.5	1.153
540.0	1.151
540.5	1.148
541.0	1.146
541.5	1.142
542.0	1.137
542.5	1.134
543.0	1.129
543.5	1.127
544.0	1.121
544.5	1.118
545.0	1.114
545.5	1.110
546.0	1.107
546.5	1.098
547.0	1.092
547.5	1.088
548.0	1.080
548.5	1.077
549.0	1.073
549.5	1.070
550.0	1.069
550.5	1.071
551.0	1.070
551.5	1.059
552.0	1.052
552.5	1.045
553.0	1.036
553.5	1.028
554.0	1.023
554.5	1.016
555.0	1.013
555.5	1.014
556.0	1.012
556.5	1.007
557.0	1.004
557.5	1.002
558.0	1.002
558.5	0.999
559.0	0.999
559.5	0.993
560.0	0.985
560.5	0.984
561.0	0.980
561.5	0.975
562.0	0.969
562.5	0.966
563.0	0.964
563.5	0.960
564.0	0.956
564.5	0.950
565.0	0.944
565.5	0.942
566.0	0.936
566.5	0.930
567.0	0.923
567.5	0.923
568.0	0.922
568.5	0.917
569.0	0.913
569.5	0.909
570.0	0.901
570.5	0.894
571.0	0.890
571.5	0.888
572.0	0.885
572.5	0.884
573.0	0.883
573.5	0.881
574.0	0.881
574.5	0.880
575.0	0.871
575.5	0.867
576.0	0.865
576.5	0.866
577.0	0.862
577.5	0.861
578.0	0.859
578.5	0.860
579.0	0.859
579.5	0.858
580.0	0.848
580.5	0.843
581.0	0.837
581.5	0.831
582.0	0.826
582.5	0.823
583.0	0.820
583.5	0.821
584.0	0.822
584.5	0.821
585.0	0.816
585.5	0.812
586.0	0.810
586.5	0.805
587.0	0.802
587.5	0.802
588.0	0.805
588.5	0.807
589.0	0.807
589.5	0.806
590.0	0.805
590.5	0.803
591.0	0.802
591.5	0.802
592.0	0.802
592.5	0.802
593.0	0.802
593.5	0.801
594.0	0.798
594.5	0.798
595.0	0.798
595.5	0.797
596.0	0.796
596.5	0.794
597.0	0.792
597.5	0.789
598.0	0.786
598.5	0.787
599.0	0.787
599.5	0.792
600.0	0.795
600.5	0.798
601.0	0.799
601.5	0.798
602.0	0.799
602.5	0.802
603.0	0.802
603.5	0.805
604.0	0.810
604.5	0.819
605.0	0.824
605.5	0.827
606.0	0.827
606.5	0.830
607.0	0.833
607.5	0.839
608.0	0.841
608.5	0.842
609.0	0.846
609.5	0.856
610.0	0.860
610.5	0.864
611.0	0.864
611.5	0.868
612.0	0.868
612.5	0.873
613.0	0.874
613.5	0.877
614.0	0.884
614.5	0.890
615.0	0.897
615.5	0.904
616.0	0.908
616.5	0.916
617.0	0.921
617.5	0.925
618.0	0.932
618.5	0.940
619.0	0.952
619.5	0.960
620.0	0.970
620.5	0.980
621.0	0.986
621.5	0.994
622.0	0.997
622.5	0.999
623.0	0.999
623.5	1.000
624.0	1.009
624.5	1.018
625.0	1.027
625.5	1.043
626.0	1.056
626.5	1.066
627.0	1.079
627.5	1.093
628.0	1.097
628.5	1.107
629.0	1.116
629.5	1.124
630.0	1.130
630.5	1.143
631.0	1.148
631.5	1.157
632.0	1.168
632.5	1.174
633.0	1.182
633.5	1.195
634.0	1.207
634.5	1.218
635.0	1.236
635.5	1.255
636.0	1.267
636.5	1.278
637.0	1.286
637.5	1.293
638.0	1.304
638.5	1.313
639.0	1.326
639.5	1.333
640.0	1.354
640.5	1.370
641.0	1.385
641.5	1.397
642.0	1.410
642.5	1.421
643.0	1.433
643.5	1.437
644.0	1.445
644.5	1.451
645.0	1.465
645.5	1.478
646.0	1.494
646.5	1.511
647.0	1.529
647.5	1.544
648.0	1.560
648.5	1.567
649.0	1.581
649.5	1.594
650.0	1.607
650.5	1.621
651.0	1.632
651.5	1.645
652.0	1.658
652.5	1.666
653.0	1.680
653.5	1.692
654.0	1.707
654.5	1.719
655.0	1.739
655.5	1.757
656.0	1.768
656.5	1.781
657.0	1.799
657.5	1.813
658.0	1.833
658.5	1.846
659.0	1.850
659.5	1.854
660.0	1.863
660.5	1.864
661.0	1.868
661.5	1.881
662.0	1.902
662.5	1.922
663.0	1.944
663.5	1.958
664.0	1.967
664.5	1.977
665.0	1.983
665.5	1.983
666.0	1.988
666.5	2.001
667.0	2.015
667.5	2.024
668.0	2.032
668.5	2.043
669.0	2.053
669.5	2.062
670.0	2.067
670.5	2.077
671.0	2.086
671.5	2.103
672.0	2.112
672.5	2.117
673.0	2.124
673.5	2.131
674.0	2.135
674.5	2.144
675.0	2.148
675.5	2.157
676.0	2.164
676.5	2.170
677.0	2.176
677.5	2.185
678.0	2.192
678.5	2.197
679.0	2.202
679.5	2.210
680.0	2.212
680.5	2.221
681.0	2.228
681.5	2.231
682.0	2.237
682.5	2.244
683.0	2.249
683.5	2.253
684.0	2.256
684.5	2.256
685.0	2.255
685.5	2.261
686.0	2.261
686.5	2.264
687.0	2.267
687.5	2.269
688.0	2.274
688.5	2.275
689.0	2.277
689.5	2.272
690.0	2.274
690.5	2.284
691.0	2.281
691.5	2.286
692.0	2.292
692.5	2.294
693.0	2.291
693.5	2.284
694.0	2.287
694.5	2.294
695.0	2.300
695.5	2.304
696.0	2.300
696.5	2.295
697.0	2.296
697.5	2.292
698.0	2.283
698.5	2.284
699.0	2.286
699.5	2.289
700.0	2.290
700.5	2.291
701.0	2.285
701.5	2.276
702.0	2.272
702.5	2.269
703.0	2.259
703.5	2.257
704.0	2.246
704.5	2.242
705.0	2.244
705.5	2.241
706.0	2.233
706.5	2.234
707.0	2.235
707.5	2.235
708.0	2.234
708.5	2.236
709.0	2.233
709.5	2.230
710.0	2.227
710.5	2.221
711.0	2.213
711.5	2.211
712.0	2.206
712.5	2.200
713.0	2.197
713.5	2.194
714.0	2.193
714.5	2.191
715.0	2.190
715.5	2.187
716.0	2.182
716.5	2.181
717.0	2.176
717.5	2.170
718.0	2.167
718.5	2.164
719.0	2.159
719.5	2.153
720.0	2.149
720.5	2.142
721.0	2.141
721.5	2.137
722.0	2.133
722.5	2.128
723.0	2.126
723.5	2.119
724.0	2.112
724.5	2.100
725.0	2.094
725.5	2.085
726.0	2.080
726.5	2.074
727.0	2.071
727.5	2.073
728.0	2.075
728.5	2.075
729.0	2.070
729.5	2.059
730.0	2.052
730.5	2.048
731.0	2.045
731.5	2.040
732.0	2.034
732.5	2.035
733.0	2.035
733.5	2.029
734.0	2.022
734.5	2.018
735.0	2.015
735.5	2.014
736.0	2.011
736.5	2.004
737.0	1.997
737.5	1.994
738.0	1.989
738.5	1.984
739.0	1.979
739.5	1.978
740.0	1.973
740.5	1.966
741.0	1.956
741.5	1.946
742.0	1.938
742.5	1.931
743.0	1.923
743.5	1.921
744.0	1.915
744.5	1.918
745.0	1.919
745.5	1.925
746.0	1.914
746.5	1.914
747.0	1.914
747.5	1.910
748.0	1.903
748.5	1.899
749.0	1.895
749.5	1.895
750.0	1.887
750.5	1.882
751.0	1.871
751.5	1.863
752.0	1.859
752.5	1.848
753.0	1.837
753.5	1.831
754.0	1.833
754.5	1.831
755.0	1.825
755.5	1.825
756.0	1.824
756.5	1.820
757.0	1.814
757.5	1.804
758.0	1.797
758.5	1.793
759.0	1.796
759.5	1.797
760.0	1.794
760.5	1.796
761.0	1.800
761.5	1.804
762.0	1.798
762.5	1.795
763.0	1.796
763.5	1.801
764.0	1.809
764.5	1.808
765.0	1.809
765.5	1.806
766.0	1.802
766.5	1.796
767.0	1.782
767.5	1.773
768.0	1.761
768.5	1.755
769.0	1.751
769.5	1.752
770.0	1.753
770.5	1.753
771.0	1.746
771.5	1.738
772.0	1.737
772.5	1.737
773.0	1.731
773.5	1.726
774.0	1.725
774.5	1.726
775.0	1.726
775.5	1.724
776.0	1.720
776.5	1.713
777.0	1.720
777.5	1.721
778.0	1.710
778.5	1.707
779.0	1.705
779.5	1.690
780.0	1.685
780.5	1.680
781.0	1.683
781.5	1.678
782.0	1.686
782.5	1.681
783.0	1.671
783.5	1.678
784.0	1.673
784.5	1.669
785.0	1.683
785.5	1.686
786.0	1.690
786.5	1.691
787.0	1.687
787.5	1.674
788.0	1.666
788.5	1.657
789.0	1.652
789.5	1.659
790.0	1.664
790.5	1.660
791.0	1.659
791.5	1.657
792.0	1.651
792.5	1.647
793.0	1.650
793.5	1.651
794.0	1.658
794.5	1.662
795.0	1.658
795.5	1.657
796.0	1.655
796.5	1.648
797.0	1.637
797.5	1.633
798.0	1.630
798.5	1.626
799.0	1.616
799.5	1.611
800.0	1.606
800.5	1.606
801.0	1.608
801.5	1.605
802.0	1.598
802.5	1.594
803.0	1.592
803.5	1.585
804.0	1.580
804.5	1.572
805.0	1.571
805.5	1.573
806.0	1.577
806.5	1.582
807.0	1.574
807.5	1.569
808.0	1.565
808.5	1.560
809.0	1.558
809.5	1.549
810.0	1.554
810.5	1.559
811.0	1.562
811.5	1.567
812.0	1.561
812.5	1.559
813.0	1.560
813.5	1.558
814.0	1.555
814.5	1.544
815.0	1.539
815.5	1.534
816.0	1.528
816.5	1.525
817.0	1.519
817.5	1.523
818.0	1.529
818.5	1.524
819.0	1.519
819.5	1.510
820.0	1.509
820.5	1.509
821.0	1.508
821.5	1.500
822.0	1.493
822.5	1.493
823.0	1.496
823.5	1.499
824.0	1.504
824.5	1.513
825.0	1.519
825.5	1.520
826.0	1.514
826.5	1.502
827.0	1.490
827.5	1.487
828.0	1.486
828.5	1.486
829.0	1.478
829.5	1.470
830.0	1.459
830.5	1.450
831.0	1.442
831.5	1.438
832.0	1.430
832.5	1.430
833.0	1.430
833.5	1.431
834.0	1.431
834.5	1.430
835.0	1.427
835.5	1.417
836.0	1.412
836.5	1.400
837.0	1.392
837.5	1.394
838.0	1.390
838.5	1.384
839.0	1.379
839.5	1.366
840.0	1.359
840.5	1.349
841.0	1.356
841.5	1.354
842.0	1.363
842.5	1.364
843.0	1.349
843.5	1.336
844.0	1.314
844.5	1.299
845.0	1.283
845.5	1.268
846.0	1.266
846.5	1.246
847.0	1.249
847.5	1.249
848.0	1.253
848.5	1.264
849.0	1.262
849.5	1.272
850.0	1.268


650hcl 1
1/30/2025 1:26 PM
Wavelength (nm)	10mm Absorbance
//WLCalib: Shift 	0.11000	
//WLCalib: 261S 	0.08000	
//WLCalib: 362S 	-0.10000	
//WLCalib: 484S 	-0.09000	
//WLCalib: 529S 	-0.06000	
//WLCalib: 823S 	-0.07000	
//QSpecEnd: 
190.0	0.651
190.5	0.944
191.0	1.141
191.5	1.217
192.0	1.332
192.5	1.338
193.0	1.211
193.5	1.151
194.0	0.948
194.5	0.777
195.0	0.743
195.5	0.815
196.0	0.781
196.5	0.848
197.0	0.913
197.5	1.103
198.0	1.121
198.5	1.265
199.0	1.303
199.5	1.464
200.0	1.345
200.5	1.419
201.0	1.357
201.5	1.333
202.0	1.587
202.5	1.546
203.0	1.544
203.5	1.741
204.0	1.785
204.5	2.001
205.0	1.847
205.5	1.918
206.0	1.949
206.5	2.105
207.0	2.292
207.5	2.491
208.0	3.409
208.5	4.278
209.0	5.313
209.5	6.202
210.0	7.235
210.5	8.556
211.0	9.967
211.5	11.164
212.0	12.478
212.5	14.144
213.0	15.618
213.5	16.661
214.0	17.382
214.5	17.608
215.0	17.795
215.5	17.598
216.0	17.125
216.5	16.381
217.0	15.596
217.5	14.655
218.0	13.583
218.5	12.599
219.0	11.631
219.5	10.732
220.0	9.921
220.5	9.244
221.0	8.717
221.5	8.255
222.0	7.857
222.5	7.543
223.0	7.279
223.5	7.045
224.0	6.860
224.5	6.706
225.0	6.598
225.5	6.514
226.0	6.452
226.5	6.429
227.0	6.422
227.5	6.433
228.0	6.456
228.5	6.486
229.0	6.526
229.5	6.576
230.0	6.630
230.5	6.689
231.0	6.754
231.5	6.833
232.0	6.916
232.5	7.008
233.0	7.101
233.5	7.190
234.0	7.277
234.5	7.362
235.0	7.438
235.5	7.507
236.0	7.571
236.5	7.627
237.0	7.685
237.5	7.737
238.0	7.785
238.5	7.825
239.0	7.861
239.5	7.895
240.0	7.911
240.5	7.923
241.0	7.924
241.5	7.923
242.0	7.916
242.5	7.901
243.0	7.884
243.5	7.862
244.0	7.834
244.5	7.794
245.0	7.734
245.5	7.663
246.0	7.581
246.5	7.495
247.0	7.406
247.5	7.320
248.0	7.236
248.5	7.160
249.0	7.071
249.5	6.966
250.0	6.848
250.5	6.715
251.0	6.574
251.5	6.432
252.0	6.294
252.5	6.162
253.0	6.043
253.5	5.928
254.0	5.808
254.5	5.681
255.0	5.545
255.5	5.405
256.0	5.255
256.5	5.106
257.0	4.959
257.5	4.813
258.0	4.670
258.5	4.534
259.0	4.406
259.5	4.284
260.0	4.171
260.5	4.071
261.0	3.968
261.5	3.868
262.0	3.769
262.5	3.666
263.0	3.558
263.5	3.454
264.0	3.349
264.5	3.248
265.0	3.151
265.5	3.061
266.0	2.972
266.5	2.885
267.0	2.804
267.5	2.726
268.0	2.650
268.5	2.584
269.0	2.520
269.5	2.457
270.0	2.395
270.5	2.341
271.0	2.289
271.5	2.240
272.0	2.193
272.5	2.151
273.0	2.113
273.5	2.080
274.0	2.048
274.5	2.016
275.0	1.985
275.5	1.957
276.0	1.929
276.5	1.903
277.0	1.879
277.5	1.857
278.0	1.836
278.5	1.816
279.0	1.801
279.5	1.788
280.0	1.772
280.5	1.759
281.0	1.742
281.5	1.729
282.0	1.716
282.5	1.700
283.0	1.687
283.5	1.675
284.0	1.667
284.5	1.656
285.0	1.644
285.5	1.633
286.0	1.624
286.5	1.617
287.0	1.610
287.5	1.600
288.0	1.594
288.5	1.590
289.0	1.587
289.5	1.577
290.0	1.569
290.5	1.562
291.0	1.557
291.5	1.548
292.0	1.543
292.5	1.538
293.0	1.536
293.5	1.533
294.0	1.527
294.5	1.520
295.0	1.514
295.5	1.508
296.0	1.500
296.5	1.490
297.0	1.484
297.5	1.480
298.0	1.477
298.5	1.472
299.0	1.469
299.5	1.467
300.0	1.462
300.5	1.461
301.0	1.454
301.5	1.448
302.0	1.448
302.5	1.447
303.0	1.443
303.5	1.441
304.0	1.435
304.5	1.430
305.0	1.426
305.5	1.423
306.0	1.414
306.5	1.410
307.0	1.406
307.5	1.405
308.0	1.403
308.5	1.402
309.0	1.396
309.5	1.395
310.0	1.389
310.5	1.380
311.0	1.374
311.5	1.368
312.0	1.365
312.5	1.363
313.0	1.357
313.5	1.355
314.0	1.354
314.5	1.351
315.0	1.345
315.5	1.346
316.0	1.347
316.5	1.342
317.0	1.340
317.5	1.333
318.0	1.325
318.5	1.323
319.0	1.324
319.5	1.323
320.0	1.321
320.5	1.323
321.0	1.317
321.5	1.307
322.0	1.303
322.5	1.293
323.0	1.285
323.5	1.280
324.0	1.277
324.5	1.277
325.0	1.276
325.5	1.278
326.0	1.274
326.5	1.271
327.0	1.272
327.5	1.268
328.0	1.263
328.5	1.259
329.0	1.253
329.5	1.251
330.0	1.249
330.5	1.247
331.0	1.240
331.5	1.237
332.0	1.235
332.5	1.230
333.0	1.225
333.5	1.222
334.0	1.218
334.5	1.217
335.0	1.221
335.5	1.219
336.0	1.220
336.5	1.219
337.0	1.218
337.5	1.215
338.0	1.215
338.5	1.212
339.0	1.203
339.5	1.197
340.0	1.192
340.5	1.186
341.0	1.186
341.5	1.180
342.0	1.178
342.5	1.180
343.0	1.181
343.5	1.181
344.0	1.179
344.5	1.175
345.0	1.169
345.5	1.166
346.0	1.164
346.5	1.158
347.0	1.158
347.5	1.156
348.0	1.152
348.5	1.151
349.0	1.152
349.5	1.151
350.0	1.150
350.5	1.148
351.0	1.146
351.5	1.144
352.0	1.146
352.5	1.140
353.0	1.136
353.5	1.132
354.0	1.134
354.5	1.138
355.0	1.140
355.5	1.138
356.0	1.139
356.5	1.139
357.0	1.140
357.5	1.139
358.0	1.136
358.5	1.131
359.0	1.128
359.5	1.126
360.0	1.125
360.5	1.121
361.0	1.117
361.5	1.117
362.0	1.119
362.5	1.118
363.0	1.116
363.5	1.115
364.0	1.115
364.5	1.114
365.0	1.115
365.5	1.112
366.0	1.109
366.5	1.111
367.0	1.114
367.5	1.112
368.0	1.114
368.5	1.114
369.0	1.117
369.5	1.116
370.0	1.116
370.5	1.116
371.0	1.115
371.5	1.114
372.0	1.110
372.5	1.104
373.0	1.103
373.5	1.105
374.0	1.108
374.5	1.107
375.0	1.106
375.5	1.107
376.0	1.107
376.5	1.103
377.0	1.098
377.5	1.096
378.0	1.096
378.5	1.100
379.0	1.104
379.5	1.101
380.0	1.102
380.5	1.104
381.0	1.101
381.5	1.097
382.0	1.094
382.5	1.088
383.0	1.086
383.5	1.089
384.0	1.089
384.5	1.086
385.0	1.086
385.5	1.086
386.0	1.082
386.5	1.080
387.0	1.075
387.5	1.071
388.0	1.068
388.5	1.069
389.0	1.068
389.5	1.068
390.0	1.071
390.5	1.069
391.0	1.068
391.5	1.064
392.0	1.062
392.5	1.063
393.0	1.062
393.5	1.063
394.0	1.062
394.5	1.064
395.0	1.063
395.5	1.060
396.0	1.059
396.5	1.054
397.0	1.051
397.5	1.050
398.0	1.050
398.5	1.048
399.0	1.045
399.5	1.046
400.0	1.043
400.5	1.038
401.0	1.037
401.5	1.031
402.0	1.028
402.5	1.025
403.0	1.025
403.5	1.024
404.0	1.024
404.5	1.025
405.0	1.021
405.5	1.020
406.0	1.021
406.5	1.018
407.0	1.017
407.5	1.014
408.0	1.014
408.5	1.012
409.0	1.011
409.5	1.010
410.0	1.009
410.5	1.009
411.0	1.009
411.5	1.007
412.0	1.005
412.5	1.003
413.0	1.003
413.5	1.002
414.0	1.002
414.5	1.003
415.0	1.002
415.5	1.001
416.0	1.001
416.5	1.000
417.0	0.998
417.5	0.995
418.0	0.991
418.5	0.989
419.0	0.986
419.5	0.985
420.0	0.980
420.5	0.981
421.0	0.981
421.5	0.982
422.0	0.985
422.5	0.986
423.0	0.986
423.5	0.987
424.0	0.986
424.5	0.984
425.0	0.978
425.5	0.976
426.0	0.974
426.5	0.972
427.0	0.972
427.5	0.969
428.0	0.967
428.5	0.965
429.0	0.966
429.5	0.964
430.0	0.964
430.5	0.965
431.0	0.966
431.5	0.966
432.0	0.965
432.5	0.963
433.0	0.958
433.5	0.958
434.0	0.956
434.5	0.954
435.0	0.954
435.5	0.955
436.0	0.955
436.5	0.956
437.0	0.957
437.5	0.957
438.0	0.955
438.5	0.955
439.0	0.953
439.5	0.950
440.0	0.948
440.5	0.944
441.0	0.941
441.5	0.939
442.0	0.937
442.5	0.937
443.0	0.940
443.5	0.941
444.0	0.944
444.5	0.944
445.0	0.941
445.5	0.939
446.0	0.937
446.5	0.936
447.0	0.935
447.5	0.934
448.0	0.935
448.5	0.930
449.0	0.928
449.5	0.927
450.0	0.924
450.5	0.922
451.0	0.922
451.5	0.922
452.0	0.921
452.5	0.921
453.0	0.925
453.5	0.925
454.0	0.925
454.5	0.929
455.0	0.929
455.5	0.928
456.0	0.926
456.5	0.923
457.0	0.920
457.5	0.918
458.0	0.918
458.5	0.915
459.0	0.913
459.5	0.910
460.0	0.909
460.5	0.908
461.0	0.907
461.5	0.908
462.0	0.908
462.5	0.913
463.0	0.917
463.5	0.918
464.0	0.919
464.5	0.917
465.0	0.916
465.5	0.916
466.0	0.916
466.5	0.913
467.0	0.911
467.5	0.913
468.0	0.912
468.5	0.911
469.0	0.909
469.5	0.909
470.0	0.909
470.5	0.911
471.0	0.912
471.5	0.911
472.0	0.911
472.5	0.908
473.0	0.906
473.5	0.905
474.0	0.905
474.5	0.906
475.0	0.907
475.5	0.909
476.0	0.912
476.5	0.912
477.0	0.915
477.5	0.916
478.0	0.917
478.5	0.920
479.0	0.926
479.5	0.929
480.0	0.928
480.5	0.928
481.0	0.927
481.5	0.925
482.0	0.924
482.5	0.925
483.0	0.926
483.5	0.927
484.0	0.930
484.5	0.932
485.0	0.932
485.5	0.933
486.0	0.934
486.5	0.939
487.0	0.944
487.5	0.947
488.0	0.951
488.5	0.958
489.0	0.962
489.5	0.964
490.0	0.966
490.5	0.969
491.0	0.975
491.5	0.981
492.0	0.985
492.5	0.989
493.0	0.993
493.5	0.997
494.0	0.998
494.5	0.999
495.0	1.002
495.5	1.007
496.0	1.013
496.5	1.017
497.0	1.021
497.5	1.027
498.0	1.033
498.5	1.038
499.0	1.047
499.5	1.052
500.0	1.058
500.5	1.065
501.0	1.071
501.5	1.075
502.0	1.080
502.5	1.085
503.0	1.094
503.5	1.099
504.0	1.105
504.5	1.107
505.0	1.109
505.5	1.113
506.0	1.116
506.5	1.119
507.0	1.125
507.5	1.127
508.0	1.133
508.5	1.137
509.0	1.138
509.5	1.139
510.0	1.142
510.5	1.143
511.0	1.146
511.5	1.148
512.0	1.151
512.5	1.153
513.0	1.155
513.5	1.158
514.0	1.155
514.5	1.155
515.0	1.157
515.5	1.154
516.0	1.153
516.5	1.153
517.0	1.152
517.5	1.152
518.0	1.149
518.5	1.150
519.0	1.148
519.5	1.149
520.0	1.150
520.5	1.151
521.0	1.147
521.5	1.142
522.0	1.137
522.5	1.135
523.0	1.131
523.5	1.127
524.0	1.124
524.5	1.123
525.0	1.119
525.5	1.118
526.0	1.112
526.5	1.105
527.0	1.099
527.5	1.102
528.0	1.101
528.5	1.097
529.0	1.094
529.5	1.093
530.0	1.089
530.5	1.086
531.0	1.082
531.5	1.078
532.0	1.071
532.5	1.072
533.0	1.068
533.5	1.062
534.0	1.058
534.5	1.055
535.0	1.050
535.5	1.044
536.0	1.041
536.5	1.037
537.0	1.033
537.5	1.030
538.0	1.027
538.5	1.027
539.0	1.024
539.5	1.020
540.0	1.016
540.5	1.011
541.0	1.006
541.5	0.997
542.0	0.989
542.5	0.981
543.0	0.978
543.5	0.979
544.0	0.977
544.5	0.976
545.0	0.977
545.5	0.979
546.0	0.974
546.5	0.966
547.0	0.958
547.5	0.950
548.0	0.944
548.5	0.941
549.0	0.934
549.5	0.932
550.0	0.931
550.5	0.934
551.0	0.930
551.5	0.923
552.0	0.915
552.5	0.908
553.0	0.902
553.5	0.896
554.0	0.890
554.5	0.886
555.0	0.880
555.5	0.876
556.0	0.872
556.5	0.867
557.0	0.863
557.5	0.862
558.0	0.861
558.5	0.862
559.0	0.863
559.5	0.861
560.0	0.853
560.5	0.849
561.0	0.846
561.5	0.842
562.0	0.834
562.5	0.829
563.0	0.828
563.5	0.827
564.0	0.822
564.5	0.814
565.0	0.804
565.5	0.801
566.0	0.796
566.5	0.791
567.0	0.784
567.5	0.783
568.0	0.783
568.5	0.778
569.0	0.773
569.5	0.766
570.0	0.759
570.5	0.753
571.0	0.748
571.5	0.747
572.0	0.743
572.5	0.742
573.0	0.739
573.5	0.737
574.0	0.736
574.5	0.733
575.0	0.727
575.5	0.722
576.0	0.721
576.5	0.723
577.0	0.718
577.5	0.716
578.0	0.713
578.5	0.712
579.0	0.712
579.5	0.710
580.0	0.706
580.5	0.701
581.0	0.698
581.5	0.693
582.0	0.687
582.5	0.682
583.0	0.679
583.5	0.679
584.0	0.678
584.5	0.679
585.0	0.680
585.5	0.674
586.0	0.670
586.5	0.660
587.0	0.656
587.5	0.649
588.0	0.649
588.5	0.647
589.0	0.645
589.5	0.644
590.0	0.645
590.5	0.641
591.0	0.635
591.5	0.631
592.0	0.632
592.5	0.632
593.0	0.636
593.5	0.635
594.0	0.634
594.5	0.632
595.0	0.631
595.5	0.628
596.0	0.625
596.5	0.626
597.0	0.625
597.5	0.624
598.0	0.623
598.5	0.619
599.0	0.612
599.5	0.612
600.0	0.615
600.5	0.615
601.0	0.616
601.5	0.617
602.0	0.615
602.5	0.614
603.0	0.612
603.5	0.609
604.0	0.611
604.5	0.614
605.0	0.618
605.5	0.621
606.0	0.619
606.5	0.622
607.0	0.623
607.5	0.623
608.0	0.624
608.5	0.624
609.0	0.626
609.5	0.630
610.0	0.632
610.5	0.638
611.0	0.635
611.5	0.638
612.0	0.635
612.5	0.633
613.0	0.634
613.5	0.636
614.0	0.640
614.5	0.647
615.0	0.651
615.5	0.656
616.0	0.659
616.5	0.663
617.0	0.663
617.5	0.662
618.0	0.662
618.5	0.665
619.0	0.671
619.5	0.676
620.0	0.682
620.5	0.690
621.0	0.698
621.5	0.703
622.0	0.704
622.5	0.703
623.0	0.699
623.5	0.699
624.0	0.704
624.5	0.709
625.0	0.717
625.5	0.728
626.0	0.736
626.5	0.740
627.0	0.748
627.5	0.756
628.0	0.758
628.5	0.766
629.0	0.771
629.5	0.779
630.0	0.788
630.5	0.797
631.0	0.798
631.5	0.802
632.0	0.810
632.5	0.815
633.0	0.816
633.5	0.824
634.0	0.833
634.5	0.844
635.0	0.857
635.5	0.869
636.0	0.872
636.5	0.880
637.0	0.888
637.5	0.895
638.0	0.902
638.5	0.908
639.0	0.915
639.5	0.920
640.0	0.934
640.5	0.946
641.0	0.953
641.5	0.967
642.0	0.978
642.5	0.988
643.0	0.998
643.5	0.999
644.0	1.001
644.5	1.007
645.0	1.014
645.5	1.030
646.0	1.044
646.5	1.063
647.0	1.076
647.5	1.092
648.0	1.108
648.5	1.116
649.0	1.119
649.5	1.126
650.0	1.132
650.5	1.147
651.0	1.153
651.5	1.166
652.0	1.179
652.5	1.197
653.0	1.216
653.5	1.231
654.0	1.245
654.5	1.259
655.0	1.276
655.5	1.291
656.0	1.295
656.5	1.301
657.0	1.313
657.5	1.328
658.0	1.344
658.5	1.354
659.0	1.363
659.5	1.371
660.0	1.381
660.5	1.387
661.0	1.394
661.5	1.410
662.0	1.431
662.5	1.451
663.0	1.473
663.5	1.483
664.0	1.495
664.5	1.509
665.0	1.518
665.5	1.519
666.0	1.527
666.5	1.545
667.0	1.562
667.5	1.574
668.0	1.590
668.5	1.604
669.0	1.617
669.5	1.631
670.0	1.641
670.5	1.646
671.0	1.657
671.5	1.675
672.0	1.690
672.5	1.696
673.0	1.710
673.5	1.723
674.0	1.733
674.5	1.748
675.0	1.762
675.5	1.771
676.0	1.786
676.5	1.797
677.0	1.807
677.5	1.815
678.0	1.827
678.5	1.839
679.0	1.849
679.5	1.865
680.0	1.877
680.5	1.886
681.0	1.895
681.5	1.899
682.0	1.906
682.5	1.916
683.0	1.927
683.5	1.936
684.0	1.949
684.5	1.963
685.0	1.973
685.5	1.982
686.0	1.984
686.5	1.996
687.0	2.002
687.5	2.009
688.0	2.021
688.5	2.027
689.0	2.035
689.5	2.043
690.0	2.048
690.5	2.053
691.0	2.059
691.5	2.073
692.0	2.082
692.5	2.090
693.0	2.101
693.5	2.099
694.0	2.104
694.5	2.114
695.0	2.122
695.5	2.130
696.0	2.134
696.5	2.139
697.0	2.147
697.5	2.154
698.0	2.159
698.5	2.169
699.0	2.179
699.5	2.188
700.0	2.193
700.5	2.200
701.0	2.200
701.5	2.198
702.0	2.198
702.5	2.196
703.0	2.198
703.5	2.203
704.0	2.196
704.5	2.197
705.0	2.199
705.5	2.207
706.0	2.209
706.5	2.217
707.0	2.223
707.5	2.228
708.0	2.233
708.5	2.238
709.0	2.235
709.5	2.241
710.0	2.242
710.5	2.244
711.0	2.246
711.5	2.252
712.0	2.252
712.5	2.252
713.0	2.253
713.5	2.254
714.0	2.257
714.5	2.264
715.0	2.264
715.5	2.263
716.0	2.263
716.5	2.266
717.0	2.264
717.5	2.261
718.0	2.262
718.5	2.264
719.0	2.269
719.5	2.269
720.0	2.268
720.5	2.261
721.0	2.262
721.5	2.261
722.0	2.265
722.5	2.270
723.0	2.271
723.5	2.274
724.0	2.277
724.5	2.269
725.0	2.269
725.5	2.260
726.0	2.255
726.5	2.249
727.0	2.252
727.5	2.253
728.0	2.254
728.5	2.257
729.0	2.258
729.5	2.257
730.0	2.260
730.5	2.260
731.0	2.258
731.5	2.254
732.0	2.249
732.5	2.250
733.0	2.252
733.5	2.250
734.0	2.244
734.5	2.249
735.0	2.249
735.5	2.251
736.0	2.252
736.5	2.250
737.0	2.242
737.5	2.243
738.0	2.242
738.5	2.244
739.0	2.248
739.5	2.257
740.0	2.254
740.5	2.257
741.0	2.257
741.5	2.248
742.0	2.233
742.5	2.227
743.0	2.219
743.5	2.218
744.0	2.220
744.5	2.224
745.0	2.224
745.5	2.231
746.0	2.231
746.5	2.231
747.0	2.230
747.5	2.227
748.0	2.225
748.5	2.218
749.0	2.214
749.5	2.215
750.0	2.213
750.5	2.217
751.0	2.215
751.5	2.216
752.0	2.218
752.5	2.213
753.0	2.212
753.5	2.203
754.0	2.204
754.5	2.200
755.0	2.194
755.5	2.193
756.0	2.186
756.5	2.184
757.0	2.187
757.5	2.184
758.0	2.180
758.5	2.175
759.0	2.180
759.5	2.176
760.0	2.174
760.5	2.175
761.0	2.170
761.5	2.178
762.0	2.182
762.5	2.184
763.0	2.184
763.5	2.192
764.0	2.199
764.5	2.197
765.0	2.192
765.5	2.192
766.0	2.187
766.5	2.187
767.0	2.183
767.5	2.180
768.0	2.181
768.5	2.181
769.0	2.181
769.5	2.177
770.0	2.178
770.5	2.181
771.0	2.177
771.5	2.172
772.0	2.176
772.5	2.178
773.0	2.181
773.5	2.185
774.0	2.186
774.5	2.187
775.0	2.189
775.5	2.185
776.0	2.176
776.5	2.168
777.0	2.164
777.5	2.157
778.0	2.152
778.5	2.156
779.0	2.153
779.5	2.155
780.0	2.154
780.5	2.152
781.0	2.159
781.5	2.165
782.0	2.166
782.5	2.165
783.0	2.161
783.5	2.165
784.0	2.159
784.5	2.159
785.0	2.162
785.5	2.149
786.0	2.153
786.5	2.156
787.0	2.153
787.5	2.151
788.0	2.147
788.5	2.147
789.0	2.151
789.5	2.170
790.0	2.187
790.5	2.176
791.0	2.176
791.5	2.173
792.0	2.165
792.5	2.162
793.0	2.156
793.5	2.156
794.0	2.166
794.5	2.174
795.0	2.182
795.5	2.182
796.0	2.179
796.5	2.174
797.0	2.165
797.5	2.160
798.0	2.150
798.5	2.142
799.0	2.128
799.5	2.127
800.0	2.130
800.5	2.135
801.0	2.136
801.5	2.136
802.0	2.140
802.5	2.145
803.0	2.142
803.5	2.129
804.0	2.118
804.5	2.116
805.0	2.111
805.5	2.117
806.0	2.120
806.5	2.127
807.0	2.137
807.5	2.139
808.0	2.134
808.5	2.122
809.0	2.116
809.5	2.097
810.0	2.095
810.5	2.097
811.0	2.102
811.5	2.107
812.0	2.110
812.5	2.115
813.0	2.115
813.5	2.112
814.0	2.117
814.5	2.100
815.0	2.100
815.5	2.095
816.0	2.090
816.5	2.084
817.0	2.077
817.5	2.073
818.0	2.065
818.5	2.060
819.0	2.064
819.5	2.056
820.0	2.061
820.5	2.062
821.0	2.069
821.5	2.072
822.0	2.063
822.5	2.057
823.0	2.054
823.5	2.051
824.0	2.049
824.5	2.046
825.0	2.046
825.5	2.051
826.0	2.055
826.5	2.054
827.0	2.045
827.5	2.048
828.0	2.041
828.5	2.031
829.0	2.024
829.5	2.017
830.0	2.011
830.5	2.001
831.0	1.995
831.5	1.995
832.0	1.990
832.5	1.991
833.0	1.986
833.5	1.987
834.0	1.987
834.5	1.981
835.0	1.969
835.5	1.946
836.0	1.935
836.5	1.918
837.0	1.912
837.5	1.919
838.0	1.915
838.5	1.913
839.0	1.909
839.5	1.906
840.0	1.908
840.5	1.900
841.0	1.905
841.5	1.903
842.0	1.913
842.5	1.917
843.0	1.906
843.5	1.895
844.0	1.880
844.5	1.873
845.0	1.865
845.5	1.852
846.0	1.849
846.5	1.824
847.0	1.802
847.5	1.787
848.0	1.790
848.5	1.782
849.0	1.792
849.5	1.805
850.0	1.824


700hcl 1
1/30/2025 1:27 PM
Wavelength (nm)	10mm Absorbance
//WLCalib: Shift 	0.11000	
//WLCalib: 261S 	0.08000	
//WLCalib: 362S 	-0.10000	
//WLCalib: 484S 	-0.09000	
//WLCalib: 529S 	-0.06000	
//WLCalib: 823S 	-0.07000	
//QSpecEnd: 
190.0	0.961
190.5	1.141
191.0	1.253
191.5	1.346
192.0	1.308
192.5	1.160
193.0	0.999
193.5	0.892
194.0	0.846
194.5	0.914
195.0	0.883
195.5	1.050
196.0	1.132
196.5	1.243
197.0	1.221
197.5	1.377
198.0	1.343
198.5	1.569
199.0	1.569
199.5	1.364
200.0	1.363
200.5	1.465
201.0	1.596
201.5	1.627
202.0	1.717
202.5	1.680
203.0	1.441
203.5	1.355
204.0	1.157
204.5	0.855
205.0	1.090
205.5	1.333
206.0	1.775
206.5	2.214
207.0	2.558
207.5	2.872
208.0	3.343
208.5	4.061
209.0	4.910
209.5	5.864
210.0	7.187
210.5	8.331
211.0	9.494
211.5	10.918
212.0	12.247
212.5	13.532
213.0	14.707
213.5	15.846
214.0	16.911
214.5	17.566
215.0	17.836
215.5	17.664
216.0	17.230
216.5	16.664
217.0	15.672
217.5	14.599
218.0	13.427
218.5	12.512
219.0	11.549
219.5	10.711
220.0	10.033
220.5	9.419
221.0	8.861
221.5	8.373
222.0	7.993
222.5	7.670
223.0	7.403
223.5	7.172
224.0	6.990
224.5	6.829
225.0	6.716
225.5	6.632
226.0	6.568
226.5	6.536
227.0	6.529
227.5	6.534
228.0	6.552
228.5	6.587
229.0	6.632
229.5	6.680
230.0	6.732
230.5	6.788
231.0	6.849
231.5	6.923
232.0	7.003
232.5	7.092
233.0	7.184
233.5	7.277
234.0	7.371
234.5	7.453
235.0	7.523
235.5	7.592
236.0	7.651
236.5	7.703
237.0	7.756
237.5	7.798
238.0	7.838
238.5	7.883
239.0	7.921
239.5	7.951
240.0	7.967
240.5	7.987
241.0	7.996
241.5	7.998
242.0	7.992
242.5	7.981
243.0	7.965
243.5	7.948
244.0	7.912
244.5	7.866
245.0	7.803
245.5	7.734
246.0	7.655
246.5	7.568
247.0	7.483
247.5	7.405
248.0	7.321
248.5	7.240
249.0	7.147
249.5	7.042
250.0	6.922
250.5	6.792
251.0	6.655
251.5	6.519
252.0	6.386
252.5	6.257
253.0	6.127
253.5	6.001
254.0	5.868
254.5	5.739
255.0	5.602
255.5	5.460
256.0	5.311
256.5	5.167
257.0	5.028
257.5	4.883
258.0	4.737
258.5	4.600
259.0	4.468
259.5	4.354
260.0	4.244
260.5	4.136
261.0	4.029
261.5	3.926
262.0	3.821
262.5	3.712
263.0	3.598
263.5	3.491
264.0	3.383
264.5	3.283
265.0	3.186
265.5	3.090
266.0	2.998
266.5	2.908
267.0	2.824
267.5	2.744
268.0	2.670
268.5	2.605
269.0	2.543
269.5	2.481
270.0	2.418
270.5	2.364
271.0	2.308
271.5	2.256
272.0	2.208
272.5	2.164
273.0	2.126
273.5	2.093
274.0	2.060
274.5	2.025
275.0	1.993
275.5	1.963
276.0	1.933
276.5	1.909
277.0	1.885
277.5	1.866
278.0	1.846
278.5	1.829
279.0	1.812
279.5	1.795
280.0	1.779
280.5	1.764
281.0	1.750
281.5	1.739
282.0	1.726
282.5	1.711
283.0	1.697
283.5	1.686
284.0	1.674
284.5	1.662
285.0	1.652
285.5	1.641
286.0	1.635
286.5	1.630
287.0	1.624
287.5	1.611
288.0	1.603
288.5	1.598
289.0	1.590
289.5	1.582
290.0	1.576
290.5	1.568
291.0	1.563
291.5	1.556
292.0	1.551
292.5	1.545
293.0	1.542
293.5	1.539
294.0	1.535
294.5	1.529
295.0	1.524
295.5	1.517
296.0	1.508
296.5	1.500
297.0	1.493
297.5	1.487
298.0	1.482
298.5	1.476
299.0	1.473
299.5	1.471
300.0	1.466
300.5	1.463
301.0	1.458
301.5	1.454
302.0	1.450
302.5	1.444
303.0	1.440
303.5	1.439
304.0	1.435
304.5	1.430
305.0	1.427
305.5	1.425
306.0	1.420
306.5	1.417
307.0	1.411
307.5	1.407
308.0	1.405
308.5	1.403
309.0	1.397
309.5	1.392
310.0	1.388
310.5	1.383
311.0	1.381
311.5	1.378
312.0	1.373
312.5	1.368
313.0	1.365
313.5	1.359
314.0	1.359
314.5	1.354
315.0	1.350
315.5	1.352
316.0	1.355
316.5	1.350
317.0	1.345
317.5	1.340
318.0	1.334
318.5	1.331
319.0	1.331
319.5	1.326
320.0	1.322
320.5	1.325
321.0	1.321
321.5	1.314
322.0	1.310
322.5	1.305
323.0	1.299
323.5	1.299
324.0	1.295
324.5	1.290
325.0	1.287
325.5	1.286
326.0	1.281
326.5	1.278
327.0	1.279
327.5	1.277
328.0	1.268
328.5	1.267
329.0	1.260
329.5	1.253
330.0	1.248
330.5	1.244
331.0	1.239
331.5	1.241
332.0	1.244
332.5	1.244
333.0	1.240
333.5	1.241
334.0	1.238
334.5	1.232
335.0	1.230
335.5	1.227
336.0	1.223
336.5	1.220
337.0	1.217
337.5	1.218
338.0	1.220
338.5	1.217
339.0	1.215
339.5	1.211
340.0	1.209
340.5	1.205
341.0	1.205
341.5	1.196
342.0	1.189
342.5	1.191
343.0	1.188
343.5	1.182
344.0	1.180
344.5	1.175
345.0	1.169
345.5	1.167
346.0	1.169
346.5	1.164
347.0	1.164
347.5	1.167
348.0	1.164
348.5	1.162
349.0	1.162
349.5	1.162
350.0	1.160
350.5	1.159
351.0	1.159
351.5	1.158
352.0	1.156
352.5	1.151
353.0	1.144
353.5	1.139
354.0	1.136
354.5	1.139
355.0	1.138
355.5	1.139
356.0	1.144
356.5	1.146
357.0	1.145
357.5	1.142
358.0	1.139
358.5	1.136
359.0	1.131
359.5	1.129
360.0	1.127
360.5	1.127
361.0	1.127
361.5	1.124
362.0	1.125
362.5	1.123
363.0	1.126
363.5	1.125
364.0	1.123
364.5	1.121
365.0	1.118
365.5	1.119
366.0	1.119
366.5	1.117
367.0	1.122
367.5	1.120
368.0	1.123
368.5	1.123
369.0	1.125
369.5	1.123
370.0	1.119
370.5	1.119
371.0	1.116
371.5	1.114
372.0	1.110
372.5	1.103
373.0	1.105
373.5	1.107
374.0	1.107
374.5	1.109
375.0	1.111
375.5	1.111
376.0	1.108
376.5	1.104
377.0	1.101
377.5	1.101
378.0	1.102
378.5	1.104
379.0	1.104
379.5	1.103
380.0	1.103
380.5	1.100
381.0	1.094
381.5	1.091
382.0	1.091
382.5	1.089
383.0	1.089
383.5	1.093
384.0	1.094
384.5	1.090
385.0	1.089
385.5	1.088
386.0	1.085
386.5	1.084
387.0	1.080
387.5	1.075
388.0	1.074
388.5	1.076
389.0	1.074
389.5	1.072
390.0	1.071
390.5	1.072
391.0	1.071
391.5	1.067
392.0	1.063
392.5	1.063
393.0	1.063
393.5	1.064
394.0	1.062
394.5	1.061
395.0	1.061
395.5	1.060
396.0	1.058
396.5	1.052
397.0	1.050
397.5	1.051
398.0	1.049
398.5	1.046
399.0	1.045
399.5	1.045
400.0	1.043
400.5	1.040
401.0	1.037
401.5	1.032
402.0	1.031
402.5	1.032
403.0	1.034
403.5	1.031
404.0	1.030
404.5	1.025
405.0	1.020
405.5	1.018
406.0	1.018
406.5	1.019
407.0	1.024
407.5	1.025
408.0	1.027
408.5	1.024
409.0	1.021
409.5	1.014
410.0	1.011
410.5	1.011
411.0	1.008
411.5	1.008
412.0	1.008
412.5	1.006
413.0	1.004
413.5	1.005
414.0	1.003
414.5	1.001
415.0	0.999
415.5	0.998
416.0	0.996
416.5	0.997
417.0	0.995
417.5	0.993
418.0	0.991
418.5	0.992
419.0	0.991
419.5	0.990
420.0	0.989
420.5	0.990
421.0	0.991
421.5	0.991
422.0	0.992
422.5	0.993
423.0	0.992
423.5	0.992
424.0	0.989
424.5	0.987
425.0	0.982
425.5	0.981
426.0	0.979
426.5	0.978
427.0	0.978
427.5	0.977
428.0	0.975
428.5	0.974
429.0	0.975
429.5	0.974
430.0	0.976
430.5	0.979
431.0	0.978
431.5	0.979
432.0	0.978
432.5	0.975
433.0	0.969
433.5	0.966
434.0	0.964
434.5	0.960
435.0	0.960
435.5	0.959
436.0	0.960
436.5	0.962
437.0	0.961
437.5	0.962
438.0	0.961
438.5	0.959
439.0	0.957
439.5	0.952
440.0	0.950
440.5	0.948
441.0	0.946
441.5	0.944
442.0	0.944
442.5	0.947
443.0	0.949
443.5	0.947
444.0	0.948
444.5	0.946
445.0	0.945
445.5	0.941
446.0	0.937
446.5	0.937
447.0	0.938
447.5	0.935
448.0	0.934
448.5	0.931
449.0	0.930
449.5	0.931
450.0	0.930
450.5	0.927
451.0	0.924
451.5	0.924
452.0	0.922
452.5	0.920
453.0	0.924
453.5	0.924
454.0	0.926
454.5	0.930
455.0	0.932
455.5	0.931
456.0	0.930
456.5	0.927
457.0	0.924
457.5	0.923
458.0	0.919
458.5	0.914
459.0	0.912
459.5	0.913
460.0	0.913
460.5	0.914
461.0	0.915
461.5	0.915
462.0	0.915
462.5	0.917
463.0	0.918
463.5	0.920
464.0	0.922
464.5	0.923
465.0	0.922
465.5	0.921
466.0	0.920
466.5	0.917
467.0	0.913
467.5	0.914
468.0	0.914
468.5	0.913
469.0	0.913
469.5	0.913
470.0	0.915
470.5	0.916
471.0	0.918
471.5	0.918
472.0	0.917
472.5	0.917
473.0	0.915
473.5	0.914
474.0	0.912
474.5	0.912
475.0	0.913
475.5	0.914
476.0	0.917
476.5	0.918
477.0	0.919
477.5	0.920
478.0	0.921
478.5	0.923
479.0	0.924
479.5	0.926
480.0	0.926
480.5	0.924
481.0	0.923
481.5	0.922
482.0	0.922
482.5	0.922
483.0	0.927
483.5	0.930
484.0	0.934
484.5	0.937
485.0	0.938
485.5	0.937
486.0	0.939
486.5	0.943
487.0	0.946
487.5	0.949
488.0	0.955
488.5	0.961
489.0	0.967
489.5	0.970
490.0	0.974
490.5	0.976
491.0	0.982
491.5	0.987
492.0	0.989
492.5	0.992
493.0	0.996
493.5	1.000
494.0	1.003
494.5	1.005
495.0	1.008
495.5	1.011
496.0	1.013
496.5	1.014
497.0	1.015
497.5	1.020
498.0	1.024
498.5	1.029
499.0	1.038
499.5	1.044
500.0	1.052
500.5	1.061
501.0	1.067
501.5	1.073
502.0	1.075
502.5	1.079
503.0	1.085
503.5	1.088
504.0	1.094
504.5	1.095
505.0	1.099
505.5	1.103
506.0	1.104
506.5	1.106
507.0	1.107
507.5	1.110
508.0	1.114
508.5	1.116
509.0	1.117
509.5	1.117
510.0	1.118
510.5	1.117
511.0	1.116
511.5	1.118
512.0	1.121
512.5	1.123
513.0	1.124
513.5	1.124
514.0	1.125
514.5	1.125
515.0	1.123
515.5	1.119
516.0	1.119
516.5	1.119
517.0	1.119
517.5	1.117
518.0	1.117
518.5	1.116
519.0	1.113
519.5	1.108
520.0	1.102
520.5	1.100
521.0	1.096
521.5	1.089
522.0	1.085
522.5	1.081
523.0	1.080
523.5	1.078
524.0	1.074
524.5	1.072
525.0	1.071
525.5	1.070
526.0	1.062
526.5	1.054
527.0	1.046
527.5	1.045
528.0	1.044
528.5	1.041
529.0	1.040
529.5	1.041
530.0	1.036
530.5	1.032
531.0	1.025
531.5	1.016
532.0	1.006
532.5	1.006
533.0	1.001
533.5	0.999
534.0	0.996
534.5	0.995
535.0	0.992
535.5	0.987
536.0	0.982
536.5	0.978
537.0	0.974
537.5	0.976
538.0	0.973
538.5	0.974
539.0	0.969
539.5	0.962
540.0	0.956
540.5	0.949
541.0	0.943
541.5	0.935
542.0	0.930
542.5	0.929
543.0	0.927
543.5	0.930
544.0	0.926
544.5	0.923
545.0	0.921
545.5	0.919
546.0	0.912
546.5	0.901
547.0	0.895
547.5	0.890
548.0	0.886
548.5	0.884
549.0	0.877
549.5	0.874
550.0	0.871
550.5	0.871
551.0	0.869
551.5	0.863
552.0	0.859
552.5	0.855
553.0	0.852
553.5	0.846
554.0	0.841
554.5	0.836
555.0	0.831
555.5	0.829
556.0	0.826
556.5	0.820
557.0	0.814
557.5	0.813
558.0	0.812
558.5	0.812
559.0	0.814
559.5	0.810
560.0	0.802
560.5	0.798
561.0	0.791
561.5	0.785
562.0	0.777
562.5	0.771
563.0	0.769
563.5	0.772
564.0	0.771
564.5	0.765
565.0	0.760
565.5	0.758
566.0	0.754
566.5	0.748
567.0	0.740
567.5	0.736
568.0	0.735
568.5	0.732
569.0	0.729
569.5	0.723
570.0	0.713
570.5	0.704
571.0	0.698
571.5	0.691
572.0	0.685
572.5	0.681
573.0	0.680
573.5	0.683
574.0	0.690
574.5	0.691
575.0	0.685
575.5	0.680
576.0	0.675
576.5	0.670
577.0	0.663
577.5	0.655
578.0	0.650
578.5	0.649
579.0	0.651
579.5	0.652
580.0	0.645
580.5	0.641
581.0	0.638
581.5	0.633
582.0	0.627
582.5	0.620
583.0	0.612
583.5	0.608
584.0	0.608
584.5	0.608
585.0	0.604
585.5	0.600
586.0	0.597
586.5	0.588
587.0	0.583
587.5	0.579
588.0	0.578
588.5	0.575
589.0	0.573
589.5	0.567
590.0	0.564
590.5	0.556
591.0	0.548
591.5	0.543
592.0	0.541
592.5	0.542
593.0	0.544
593.5	0.543
594.0	0.539
594.5	0.536
595.0	0.533
595.5	0.528
596.0	0.523
596.5	0.523
597.0	0.518
597.5	0.517
598.0	0.517
598.5	0.515
599.0	0.510
599.5	0.510
600.0	0.510
600.5	0.506
601.0	0.505
601.5	0.502
602.0	0.496
602.5	0.496
603.0	0.491
603.5	0.488
604.0	0.490
604.5	0.490
605.0	0.489
605.5	0.486
606.0	0.485
606.5	0.486
607.0	0.485
607.5	0.483
608.0	0.480
608.5	0.478
609.0	0.479
609.5	0.481
610.0	0.478
610.5	0.478
611.0	0.472
611.5	0.473
612.0	0.467
612.5	0.463
613.0	0.462
613.5	0.463
614.0	0.466
614.5	0.470
615.0	0.471
615.5	0.471
616.0	0.469
616.5	0.468
617.0	0.465
617.5	0.462
618.0	0.462
618.5	0.464
619.0	0.466
619.5	0.465
620.0	0.465
620.5	0.469
621.0	0.471
621.5	0.471
622.0	0.470
622.5	0.467
623.0	0.463
623.5	0.459
624.0	0.458
624.5	0.457
625.0	0.458
625.5	0.467
626.0	0.469
626.5	0.469
627.0	0.472
627.5	0.474
628.0	0.468
628.5	0.468
629.0	0.469
629.5	0.474
630.0	0.477
630.5	0.482
631.0	0.477
631.5	0.475
632.0	0.477
632.5	0.475
633.0	0.473
633.5	0.481
634.0	0.489
634.5	0.497
635.0	0.506
635.5	0.513
636.0	0.510
636.5	0.509
637.0	0.509
637.5	0.508
638.0	0.504
638.5	0.506
639.0	0.511
639.5	0.512
640.0	0.520
640.5	0.526
641.0	0.526
641.5	0.529
642.0	0.536
642.5	0.539
643.0	0.542
643.5	0.537
644.0	0.535
644.5	0.535
645.0	0.536
645.5	0.541
646.0	0.547
646.5	0.556
647.0	0.569
647.5	0.580
648.0	0.588
648.5	0.585
649.0	0.586
649.5	0.588
650.0	0.589
650.5	0.590
651.0	0.591
651.5	0.597
652.0	0.607
652.5	0.612
653.0	0.618
653.5	0.625
654.0	0.635
654.5	0.642
655.0	0.650
655.5	0.659
656.0	0.666
656.5	0.676
657.0	0.682
657.5	0.687
658.0	0.699
658.5	0.706
659.0	0.712
659.5	0.710
660.0	0.708
660.5	0.710
661.0	0.715
661.5	0.729
662.0	0.740
662.5	0.755
663.0	0.777
663.5	0.788
664.0	0.799
664.5	0.807
665.0	0.808
665.5	0.811
666.0	0.817
666.5	0.825
667.0	0.831
667.5	0.839
668.0	0.850
668.5	0.858
669.0	0.873
669.5	0.888
670.0	0.900
670.5	0.909
671.0	0.917
671.5	0.927
672.0	0.938
672.5	0.946
673.0	0.953
673.5	0.962
674.0	0.972
674.5	0.989
675.0	1.004
675.5	1.017
676.0	1.030
676.5	1.039
677.0	1.051
677.5	1.059
678.0	1.066
678.5	1.076
679.0	1.084
679.5	1.101
680.0	1.120
680.5	1.133
681.0	1.146
681.5	1.156
682.0	1.169
682.5	1.178
683.0	1.188
683.5	1.200
684.0	1.209
684.5	1.223
685.0	1.237
685.5	1.245
686.0	1.253
686.5	1.268
687.0	1.279
687.5	1.292
688.0	1.311
688.5	1.329
689.0	1.345
689.5	1.363
690.0	1.381
690.5	1.393
691.0	1.405
691.5	1.424
692.0	1.437
692.5	1.449
693.0	1.461
693.5	1.471
694.0	1.483
694.5	1.505
695.0	1.522
695.5	1.538
696.0	1.558
696.5	1.571
697.0	1.585
697.5	1.599
698.0	1.613
698.5	1.633
699.0	1.649
699.5	1.665
700.0	1.681
700.5	1.701
701.0	1.713
701.5	1.722
702.0	1.737
702.5	1.751
703.0	1.764
703.5	1.783
704.0	1.789
704.5	1.801
705.0	1.818
705.5	1.831
706.0	1.837
706.5	1.851
707.0	1.868
707.5	1.884
708.0	1.896
708.5	1.914
709.0	1.926
709.5	1.943
710.0	1.955
710.5	1.967
711.0	1.979
711.5	1.998
712.0	2.014
712.5	2.033
713.0	2.048
713.5	2.058
714.0	2.068
714.5	2.085
715.0	2.103
715.5	2.119
716.0	2.135
716.5	2.146
717.0	2.156
717.5	2.175
718.0	2.190
718.5	2.195
719.0	2.202
719.5	2.219
720.0	2.233
720.5	2.242
721.0	2.258
721.5	2.266
722.0	2.282
722.5	2.308
723.0	2.325
723.5	2.333
724.0	2.340
724.5	2.347
725.0	2.352
725.5	2.354
726.0	2.367
726.5	2.374
727.0	2.388
727.5	2.412
728.0	2.433
728.5	2.448
729.0	2.455
729.5	2.458
730.0	2.466
730.5	2.470
731.0	2.478
731.5	2.484
732.0	2.492
732.5	2.514
733.0	2.533
733.5	2.544
734.0	2.550
734.5	2.565
735.0	2.574
735.5	2.584
736.0	2.594
736.5	2.604
737.0	2.607
737.5	2.615
738.0	2.624
738.5	2.636
739.0	2.650
739.5	2.666
740.0	2.669
740.5	2.682
741.0	2.689
741.5	2.694
742.0	2.693
742.5	2.698
743.0	2.705
743.5	2.715
744.0	2.725
744.5	2.737
745.0	2.741
745.5	2.756
746.0	2.754
746.5	2.764
747.0	2.772
747.5	2.781
748.0	2.788
748.5	2.800
749.0	2.808
749.5	2.822
750.0	2.832
750.5	2.837
751.0	2.835
751.5	2.845
752.0	2.853
752.5	2.854
753.0	2.859
753.5	2.860
754.0	2.868
754.5	2.874
755.0	2.873
755.5	2.875
756.0	2.881
756.5	2.892
757.0	2.899
757.5	2.901
758.0	2.901
758.5	2.909
759.0	2.923
759.5	2.924
760.0	2.923
760.5	2.937
761.0	2.940
761.5	2.950
762.0	2.952
762.5	2.955
763.0	2.960
763.5	2.972
764.0	2.985
764.5	2.987
765.0	2.987
765.5	2.998
766.0	2.998
766.5	3.002
767.0	3.000
767.5	3.003
768.0	3.009
768.5	3.011
769.0	3.016
769.5	3.014
770.0	3.022
770.5	3.032
771.0	3.030
771.5	3.032
772.0	3.031
772.5	3.032
773.0	3.042
773.5	3.044
774.0	3.043
774.5	3.042
775.0	3.048
775.5	3.055
776.0	3.053
776.5	3.059
777.0	3.054
777.5	3.056
778.0	3.059
778.5	3.053
779.0	3.054
779.5	3.049
780.0	3.055
780.5	3.059
781.0	3.065
781.5	3.073
782.0	3.080
782.5	3.077
783.0	3.067
783.5	3.064
784.0	3.063
784.5	3.060
785.0	3.062
785.5	3.067
786.0	3.080
786.5	3.095
787.0	3.099
787.5	3.099
788.0	3.102
788.5	3.107
789.0	3.113
789.5	3.120
790.0	3.123
790.5	3.122
791.0	3.120
791.5	3.116
792.0	3.106
792.5	3.108
793.0	3.103
793.5	3.106
794.0	3.113
794.5	3.114
795.0	3.109
795.5	3.107
796.0	3.100
796.5	3.100
797.0	3.097
797.5	3.093
798.0	3.085
798.5	3.083
799.0	3.074
799.5	3.073
800.0	3.073
800.5	3.075
801.0	3.078
801.5	3.090
802.0	3.092
802.5	3.089
803.0	3.086
803.5	3.079
804.0	3.073
804.5	3.075
805.0	3.066
805.5	3.060
806.0	3.070
806.5	3.084
807.0	3.083
807.5	3.088
808.0	3.085
808.5	3.079
809.0	3.075
809.5	3.061
810.0	3.045
810.5	3.044
811.0	3.053
811.5	3.060
812.0	3.064
812.5	3.083
813.0	3.086
813.5	3.089
814.0	3.101
814.5	3.088
815.0	3.077
815.5	3.068
816.0	3.052
816.5	3.034
817.0	3.019
817.5	3.020
818.0	3.013
818.5	3.011
819.0	3.018
819.5	3.007
820.0	3.007
820.5	3.009
821.0	3.013
821.5	3.015
822.0	3.015
822.5	3.024
823.0	3.030
823.5	3.027
824.0	3.026
824.5	3.025
825.0	3.026
825.5	3.030
826.0	3.029
826.5	3.021
827.0	3.013
827.5	3.008
828.0	2.997
828.5	2.983
829.0	2.966
829.5	2.961
830.0	2.957
830.5	2.948
831.0	2.945
831.5	2.943
832.0	2.943
832.5	2.942
833.0	2.941
833.5	2.944
834.0	2.942
834.5	2.943
835.0	2.941
835.5	2.923
836.0	2.910
836.5	2.892
837.0	2.881
837.5	2.881
838.0	2.876
838.5	2.873
839.0	2.871
839.5	2.864
840.0	2.859
840.5	2.846
841.0	2.837
841.5	2.833
842.0	2.848
842.5	2.841
843.0	2.825
843.5	2.817
844.0	2.813
844.5	2.805
845.0	2.803
845.5	2.793
846.0	2.770
846.5	2.759
847.0	2.756
847.5	2.742
848.0	2.745
848.5	2.742
849.0	2.742
849.5	2.744
850.0	2.743

